t_s,t_ns,acc_x_mps2,acc_y_mps2,acc_z_mps2,gyr_x_rads,gyr_y_rads,gyr_z_rads,grav_x_mps2,grav_y_mps2,grav_z_mps2,linacc_x_mps2,linacc_y_mps2,linacc_z_mps2,mag_x_uT,mag_y_uT,mag_z_uT,rot_x,rot_y,rot_z,rot_w,yaw_deg,pitch_deg,roll_deg,gnss_lat,gnss_lon,gnss_alt_m,gnss_speed_mps,gnss_bearing_deg,gnss_acc_m,gnss_age_s,n_acc,n_gyr
0.000,416833462175319,-1.3905889,8.812826,3.681896,0.23140319,0.05406153,-0.15527418,-1.4984953,8.996521,3.6038187,0.10790646,-0.18369523,0.07807736,,,,,,,,,,,,,,,,,,5,4
0.020,416833482175319,-1.4866905,8.864511,3.497559,0.17256927,0.11476621,-0.13232857,-1.5347242,9.014554,3.542999,0.048033655,-0.15004349,-0.045440078,,,,,,,,,,,,,,,,,,2,2
0.040,416833502175319,-1.5293128,8.892925,3.3937702,0.1085812,0.10323614,-0.10018182,-1.5593834,9.026343,3.5019772,0.030070603,-0.13341808,-0.10820687,,,,,,,,,,,,,,,,,,2,2
0.060,416833522175319,-1.5535401,8.932706,3.3427732,0.03726275,0.08384118,-0.06963858,-1.5598968,9.029228,3.4943016,0.006356716,-0.09652233,-0.15152836,,,,,,,,,,,,,,,,,,2,2
0.080,416833542175319,-1.4828023,8.918648,3.3897324,-0.029779656,0.063224494,-0.04161516,-1.5539178,9.026792,3.50325,0.071115494,-0.10814333,-0.1135174,32.925003,10.05,-34.5,0.4926788,0.23184687,0.25977716,0.7974972,-26.09308,-64.99583,15.62304,,,,,,,,2,2
0.100,416833562175319,-1.4516957,8.927322,3.4217365,-0.08727729,0.04932733,-0.028099777,-1.54296,9.013836,3.5412452,0.09126443,-0.086513996,-0.11950874,31.725,9.900001,-31.575,0.4927537,0.23362522,0.25914934,0.7971411,-25.70025,-65.04998,16.114151,,,,,,,,2,2
0.120,416833582175319,-1.40025,8.896515,3.579214,-0.14508037,0.056123197,-0.023441933,-1.5249524,8.989532,3.610155,0.12470251,-0.093018055,-0.030941129,31.125002,10.35,-29.925001,0.49237937,0.23490733,0.2588556,0.79709524,-25.44568,-65.0343,16.458433,,,,,,,,2,2
0.140,416833602175319,-1.3392329,8.847162,3.8380876,-0.19158244,0.04642572,-0.011453714,-1.5047537,8.958957,3.6936712,0.16552079,-0.111793995,0.14441633,31.125002,10.275001,-29.625002,0.49153134,0.23585187,0.2587942,0.79736215,-25.285103,-64.94899,16.705116,,,,,,,,2,2
0.160,416833622175319,-1.3103695,8.804391,4.0835013,-0.20036364,0.038331762,0.001832594,-1.4903051,8.928977,3.7713058,0.17993557,-0.124586105,0.31219554,31.725,10.575001,-29.775002,0.4901179,0.23642768,0.2589488,0.7980116,-25.218222,-64.780876,16.851408,,,,,,,,2,2
0.180,416833642175319,-1.3634603,8.756684,4.1982074,-0.17661627,0.028634284,0.017944152,-1.4708438,8.909542,3.824536,0.10738355,-0.15285778,0.3736713,31.800001,10.275001,-32.100002,0.48842913,0.23667683,0.2592862,0.7988627,-25.235502,-64.56988,16.90451,,,,,,,,2,2
0.200,416833662175319,-1.3057334,8.773434,4.0707893,-0.1539379,0.0207694,0.03245219,-1.4487743,8.897061,3.86183,0.14304096,-0.12362766,0.20895958,32.550003,10.5,-32.925003,0.48681277,0.2367585,0.25970656,0.7996881,-25.296082,-64.3655,16.906492,,,,,,,,2,2
0.220,416833682175319,-1.1979069,8.912517,3.95728,-0.17455459,0.08063414,0.03405571,-1.4325924,8.872791,3.923219,0.23468554,0.039725304,0.034060955,31.500002,10.35,-29.400002,0.48548555,0.23682553,0.26035067,0.8002662,-25.41411,-64.20421,16.866154,,,,,,,,2,2
0.240,416833702175319,-1.1494522,8.796913,4.2441196,-0.22250748,0.14805834,0.02680169,-1.4309794,8.838269,4.00096,0.28152716,-0.04135561,0.24315977,32.25,10.8,-31.875002,0.48395908,0.23688202,0.26143256,0.8008204,-25.629148,-64.025085,16.768446,,,,,,,,2,2
0.260,416833722175319,-1.2583256,8.653344,4.59078,-0.21387902,0.12095121,-0.011377355,-1.4369044,8.818541,4.0421576,0.17857885,-0.16519642,0.54862213,32.025,11.475,-30.000002,0.4819805,0.23702815,0.26258492,0.80159104,-25.838823,-63.79017,16.69554,,,,,,,,2,2
0.280,416833742175319,-1.2906287,8.900403,4.2595234,-0.1853211,0.10842849,-0.048029236,-1.4473385,8.7940855,4.0914125,0.15670979,0.10631752,0.16811085,32.175003,11.325001,-31.35,0.47994396,0.23734036,0.26349232,0.80242145,-25.968847,-63.548195,16.696398,,,,,,,,2,2
0.300,416833762175319,-1.2308081,8.856285,4.408327,-0.21708605,0.20433426,-0.05085449,-1.4565634,8.759379,4.1619806,0.22575521,0.09690571,0.24634647,32.550003,11.400001,-31.2,0.4779067,0.2379421,0.26449195,0.80312914,-26.0817,-63.317574,16.747921,,,,,,,,2,2
0.320,416833782175319,-1.2503994,8.756086,4.8656554,-0.21532983,0.13187042,-0.07391463,-1.4632866,8.7281065,4.224846,0.21288723,0.027979374,0.64080954,31.125002,11.025001,-27.675001,0.47555164,0.23859578,0.26544127,0.80401766,-26.17137,-63.045933,16.826954,,,,,,,,2,2
0.340,416833802175319,-1.2502499,8.680712,4.9918766,-0.1373682,-0.027336195,-0.13217585,-1.4711204,8.709376,4.2606297,0.22087055,-0.028664112,0.7312472,32.475002,11.625,-29.625002,0.47335517,0.23892759,0.26578668,0.8051007,-26.171028,-62.773476,16.913902,,,,,,,,2,2
0.360,416833822175319,-1.262513,8.669945,4.7433224,-0.058108505,-0.09224057,-0.15966478,-1.4782412,8.699033,4.2792554,0.21572816,-0.029088497,0.46406674,31.35,11.700001,-28.35,0.47162282,0.2389142,0.26538762,0.8062536,-26.058687,-62.536507,17.012226,,,,,,,,2,2
0.380,416833842175319,-1.2873386,8.49781,4.575675,-0.0027488908,-0.040317073,-0.11239911,-1.4887285,8.699677,4.2743077,0.20138991,-0.2018671,0.30136728,30.750002,11.775001,-27.825,0.47034928,0.23882355,0.26468477,0.8072569,-25.898283,-62.35153,17.119616,,,,,,,,2,2
0.400,416833862175319,-1.4741282,8.555687,4.228716,0.023060143,0.06162098,-0.02718348,-1.4880686,8.701177,4.271483,0.013940275,-0.1454897,-0.042767048,31.875002,11.775001,-30.225,0.46957302,0.23921004,0.2640597,0.80780137,-25.70531,-62.248432,17.301516,,,,,,,,2,2
0.420,416833882175319,-1.5581763,8.760273,4.264159,-0.020922117,0.16523892,0.10071632,-1.461793,8.70021,4.2825117,-0.09638327,0.060063362,-0.01835227,32.025,11.925,-29.1,0.46908042,0.24002978,0.2641258,0.80782443,-25.613853,-62.210365,17.47638,,,,,,,,2,2
0.440,416833902175319,-1.2587743,8.733503,4.5816574,-0.03558287,0.20105085,0.19173516,-1.4241548,8.704208,4.2870646,0.16538054,0.029295444,0.29459262,32.7,11.55,-30.375002,0.4685465,0.2406787,0.26529387,0.8075584,-25.780739,-62.184967,17.47509,,,,,,,,2,2
0.460,416833922175319,-1.0537393,8.73156,4.659274,0.02924515,0.124845475,0.18096867,-1.38166,8.715392,4.278242,0.32792068,0.01616764,0.38103223,31.425001,11.475,-28.35,0.46825647,0.2409467,0.2670463,0.807068,-26.123123,-62.1922,17.31335,,,,,,,,2,2
0.480,416833942175319,-0.96266246,8.573334,4.451697,0.10522145,-0.024205515,0.1359174,-1.3433038,8.734982,4.250415,0.38064134,-0.16164732,0.20128202,31.500002,11.025001,-27.45,0.4685534,0.24066763,0.26863155,0.8064523,-26.504608,-62.255672,17.042938,,,,,,,,2,2
0.500,416833962175319,-1.017847,8.49452,3.9598222,0.14637846,-0.10170898,0.107283115,-1.3140863,8.75377,4.2207904,0.29623938,-0.2592497,-0.2609681,32.025,11.25,-29.550001,0.46964014,0.2399818,0.2696862,0.80567175,-26.834879,-62.398464,16.731709,,,,,,,,2,2
0.520,416833982175319,-1.2610176,8.590832,3.6732817,0.101938054,-0.10163262,0.116064295,-1.2776085,8.765467,4.2076936,0.016591012,-0.17463493,-0.5344118,31.2,11.1,-27.900002,0.47110358,0.23922019,0.27030656,0.804835,-27.089602,-62.579033,16.446568,,,,,,,,2,2
0.540,416834002175319,-1.268196,8.800353,3.6987057,-9.926548E-4,-0.08796452,0.16707149,-1.2196709,8.769136,4.2172327,-0.048525095,0.031216621,-0.51852715,32.775,11.625,-30.6,0.4724652,0.23829454,0.27093276,0.8041004,-27.36739,-62.740658,16.12618,,,,,,,,2,2
0.560,416834022175319,-0.993171,9.065358,3.946961,-0.10338885,-0.10125083,0.23060143,-1.1438541,8.763843,4.2493587,0.15068316,0.30151558,-0.30239773,32.7,10.725,-29.250002,0.47350103,0.23691025,0.27193388,0.8035612,-27.781229,-62.850883,15.66721,,,,,,,,2,2
0.580,416834042175319,-0.4528417,8.965158,4.295864,-0.16966768,-0.09269872,0.24709478,-1.0800267,8.751814,4.2906513,0.62718505,0.21334457,0.005213022,31.2,10.950001,-27.6,0.4740835,0.23489055,0.27346495,0.8032886,-28.38325,-62.88838,15.017427,,,,,,,,2,2
0.600,416834062175319,-0.24317059,8.778667,4.7318068,-0.15141809,-0.055588692,0.16936225,-1.0416414,8.742052,4.3199425,0.79847074,0.03661585,0.41186428,32.625,10.8,-31.125002,0.47414875,0.23266543,0.27519763,0.8033037,-29.042337,-62.85175,14.317405,,,,,,,,2,2
0.620,416834082175319,-0.3859922,8.566605,4.8789654,-0.05245801,-0.05513054,0.062919065,-1.0340364,8.740191,4.32553,0.6480442,-0.17358732,0.5534353,33.375,10.650001,-32.4,0.47401378,0.2307123,0.27659234,0.8034683,-29.585604,-62.789997,13.730068,,,,,,,,2,2
0.640,416834102175319,-0.86979103,8.653344,4.6058846,0.027870703,-0.065973386,-0.021685697,-1.0353924,8.741662,4.322232,0.16560134,-0.08831787,0.28365278,31.275002,10.725,-29.775002,0.47392818,0.22922707,0.27730313,0.8037016,-29.919971,-62.738403,13.331547,,,,,,,,2,2
0.660,416834122175319,-1.1309078,8.791979,4.4171505,0.03153589,-0.022678353,-0.0023671002,-1.0272832,8.740106,4.327312,-0.10362464,0.05187273,0.089838505,32.4,11.025001,-30.750002,0.47392002,0.22878549,0.27740175,0.80380005,-29.994686,-62.72344,13.227751,,,,,,,,2,2
0.680,416834142175319,-1.0561321,8.763115,4.489982,-0.0072540184,0.016111556,0.057497643,-1.0148878,8.739141,4.3321805,-0.04124427,0.023973465,0.15780163,31.35,10.5,-28.275002,0.4737988,0.2285058,0.27754536,0.803903,-30.056128,-62.700092,13.156541,,,,,,,,2,2
0.700,416834162175319,-0.97073823,8.794071,4.537839,-0.0035888301,0.036575526,0.077121675,-1.0030221,8.741971,4.3292346,0.032283843,0.05210066,0.2086041,32.850002,10.5,-31.500002,0.4735392,0.22798169,0.27808338,0.80402064,-30.229614,-62.656208,12.988763,,,,,,,,2,2
0.720,416834182175319,-0.93185484,8.825626,4.4412284,0.024587303,0.03252855,0.06727147,-0.9922387,8.74757,4.320401,0.060383856,0.07805681,0.1208272,32.4,9.975,-30.375002,0.47356158,0.22745623,0.27883324,0.8038973,-30.459782,-62.652225,12.779197,,,,,,,,2,2
0.740,416834202175319,-0.89072824,8.830563,4.338187,0.046120286,0.011148281,0.045662135,-0.98792386,8.7554865,4.305328,0.097195625,0.0750761,0.032859564,32.25,10.425,-29.625002,0.47398484,0.22706307,0.27950394,0.80352646,-30.671234,-62.703938,12.587718,,,,,,,,2,2
0.760,416834222175319,-0.9471091,8.865707,4.161866,0.05513054,-0.0022907427,0.014889827,-0.99114543,8.762676,4.2899323,0.04403633,0.10303068,-0.12806606,33.0,11.1,-31.650002,0.4743153,0.22694775,0.27974215,0.80328125,-30.750298,-62.746708,12.51558,,,,,,,,2,2
0.780,416834242175319,-1.0612168,8.895468,4.033551,0.03596466,0.0039706207,-0.0029016074,-0.99520725,8.764852,4.284546,-0.06600958,0.13061619,-0.25099468,32.325,10.725,-28.650002,0.47435355,0.22695126,0.27975026,0.80325484,-30.753107,-62.751972,12.513299,,,,,,,,2,2
0.800,416834262175319,-1.108176,8.867052,4.0881376,-0.00878118,-5.3450663E-4,-0.0017562361,-0.9945148,8.76184,4.2908607,-0.11366111,0.10521269,-0.20272303,31.725,10.5,-29.1,0.4743764,0.22695808,0.27975133,0.803239,-30.753382,-62.755226,12.51342,11.0554692,76.92715876,360.2998,0.0,,6.078578,0.01,2,2
0.820,416834282175319,-1.0220344,8.81471,4.2198925,-0.049250968,-0.015347976,0.0012980875,-0.9925666,8.754373,4.306527,-0.029467821,0.060337067,-0.086634874,32.850002,10.5,-30.825,0.47442204,0.22697331,0.27975106,0.8032078,-30.7532,-62.761753,12.514315,11.0554692,76.92715876,360.2998,0.0,,6.078578,0.03,2,2
0.840,416834302175319,-0.93589276,8.749057,4.4021955,-0.0717766,-0.008170316,-0.0045814854,-0.98893577,8.744142,4.328093,0.053043008,0.0049152374,0.0741024,32.475002,10.575001,-30.000002,0.47524226,0.22704668,0.27986968,0.8026609,-30.801609,-62.873707,12.472407,11.0554692,76.92715876,360.2998,0.0,,6.078578,0.05,2,2
0.860,416834322175319,-0.86620176,8.660223,4.576722,-0.07422006,-0.015118903,-0.011071923,-0.98326296,8.734787,4.348227,0.11706117,-0.0745635,0.22849488,31.725,10.200001,-29.325,0.47528523,0.2268151,0.28003868,0.8026427,-30.868887,-62.87355,12.399639,11.0554692,76.92715876,360.2998,0.0,,6.078578,0.07,2,2
0.880,416834342175319,-0.79606223,8.62792,4.616951,-0.060093816,-0.021685697,-0.014966186,-0.97699213,8.727835,4.3635745,0.18092993,-0.09991455,0.25337672,31.500002,10.725,-29.1,0.47495255,0.22637983,0.28020006,0.8029064,-30.944384,-62.816525,12.305064,11.0554692,76.92715876,360.2998,0.0,,6.078578,0.09,2,2
0.900,416834362175319,-0.66625154,8.634351,4.660471,-0.030848667,-0.002519817,-0.026267182,-0.977609,8.725809,4.3674865,0.31135744,-0.09145832,0.29298425,31.95,10.725,-28.650002,0.4749331,0.2263579,0.28020754,0.8029215,-30.947935,-62.813282,12.300534,11.0554692,76.92715876,360.2998,0.0,,6.078578,0.11,2,2
0.920,416834382175319,-0.6279664,8.729166,4.5097227,0.0010690135,0.012751801,-0.06543888,-0.9942964,8.725587,4.364158,0.36633,0.0035796165,0.1455648,33.825,10.725,-33.9,0.47464234,0.22599354,0.280292,0.8031663,-30.999043,-62.763092,12.229104,11.0554692,76.92715876,360.2998,0.0,,6.078578,0.13,2,2
0.940,416834402175319,-0.83255273,8.795717,4.3899326,0.013897172,0.04428769,-0.104992375,-1.0187404,8.723942,4.3618126,0.18618768,0.07177544,0.028119802,32.550003,10.725,-30.975,0.4743495,0.22570604,0.28025988,0.80343163,-31.014751,-62.71378,12.189509,11.0554692,76.92715876,360.2998,0.0,,6.078578,0.15,2,2
0.960,416834422175319,-1.1276176,8.777472,4.3634615,0.00519235,0.028557926,-0.104686946,-1.0345509,8.722327,4.3613167,-0.09306675,0.05514431,0.002145052,31.575,10.8,-28.050001,0.47411916,0.22610848,0.27980664,0.8036124,-30.857132,-62.69153,12.344721,11.0554692,76.92715876,360.2998,0.0,,6.078578,0.17,2,2
0.980,416834442175319,-1.2480066,8.7243805,4.29078,-0.006185005,-0.034666575,-0.06574431,-1.0394188,8.722787,4.3592415,-0.20858777,0.0015940666,-0.06846166,31.725,10.8,-28.650002,0.47390416,0.2266987,0.2790755,0.80382675,-30.616112,-62.673595,12.574778,11.0554692,76.92715876,360.2998,0.0,,6.078578,0.19,2,2
1.000,416834462175319,-1.3344473,8.621788,4.0899324,-0.013515381,-0.097662,-0.015653409,-1.0343943,8.724797,4.3564134,-0.300053,-0.10300875,-0.26648116,31.050001,10.35,-28.125002,0.47385833,0.22703458,0.2782469,0.8040461,-30.389997,-62.666786,12.757348,11.0554692,76.92715876,360.2998,0.0,,6.078578,0.21,2,2
1.020,416834482175319,-1.5988542,8.501848,3.8907297,-0.024740022,-0.16730058,0.06154462,-1.000131,8.7297735,4.354443,-0.5987232,-0.22792482,-0.4637134,33.0,11.025001,-31.575,0.4740162,0.22684838,0.27748057,0.8042704,-30.247145,-62.66868,12.814608,11.0554692,76.92715876,360.2998,0.0,,6.078578,0.23,2,2
1.040,416834502175319,-1.8541384,8.458479,3.650849,-0.047647446,-0.32551455,0.20700678,-0.9227619,8.735373,4.3602953,-0.9313765,-0.2768941,-0.7094462,31.875002,11.025001,-30.750002,0.47450703,0.225599,0.27693683,0.8045184,-30.292128,-62.679436,12.607734,11.0554692,76.92715876,360.2998,0.0,,6.078578,0.25,2,2
1.060,416834522175319,-1.778615,8.484799,3.2555847,-0.14439315,-0.44700027,0.3940841,-0.82780576,8.7272415,4.395497,-0.9508092,-0.24244213,-1.1399121,31.575,10.650001,-29.1,0.4753195,0.22273405,0.27695027,0.80482584,-30.665052,-62.681786,11.978412,11.0554692,76.92715876,360.2998,0.0,,6.078578,0.27,2,2
1.080,416834542175319,-1.6395321,8.300702,3.3819556,-0.30161446,-0.29000804,0.5650499,-0.7257573,8.702777,4.46154,-0.91377485,-0.4020748,-1.0795845,31.575,10.650001,-30.825,0.47583222,0.21875025,0.27823365,0.8051618,-31.44087,-62.6194,10.965495,11.0554692,76.92715876,360.2998,0.0,,6.078578,0.29,2,2
1.100,416834562175319,-1.801646,8.094471,3.7162032,-0.4424951,-0.09071341,0.7571668,-0.58924645,8.663641,4.556807,-1.2123995,-0.5691705,-0.84060395,31.125002,9.975,-28.95,0.47548786,0.21433808,0.28141543,0.80542994,-32.645664,-62.446636,9.66507,11.0554692,76.92715876,360.2998,0.0,,6.078578,0.31,2,2
1.120,416834582175319,-1.7356937,7.936693,4.1548376,-0.55214536,-0.02191477,1.0026581,-0.37302524,8.613476,4.673251,-1.3626685,-0.67678237,-0.5184138,30.975,9.975,-29.475,0.47422943,0.20940621,0.28679302,0.8055423,-34.332375,-62.145412,8.043493,11.0554692,76.92715876,360.2998,0.0,,6.078578,0.33,2,2
1.140,416834602175319,-0.6527919,7.8501034,4.476672,-0.629038,-0.1379027,1.227838,-0.12038068,8.553077,4.795912,-0.5324113,-0.70297337,-0.31923962,31.2,9.75,-28.725,0.47234076,0.20314284,0.29422778,0.8055217,-36.543106,-61.70298,5.9746933,11.0554692,76.92715876,360.2998,0.0,,6.078578,0.35,2,2
1.160,416834622175319,0.40558344,8.254191,4.612016,-0.70203626,-0.20639592,1.2750274,0.09501444,8.477464,4.928893,0.310569,-0.22327232,-0.3168769,32.7,9.450001,-31.650002,0.470239,0.195115,0.30320597,0.80533546,-39.193764,-61.130352,3.458625,11.0554692,76.92715876,360.2998,0.0,,6.078578,0.37,2,2
1.180,416834642175319,0.98255277,8.595318,5.106433,-0.7688496,-0.026648974,1.1561378,0.25748676,8.39488,5.0626154,0.72506607,0.20043802,0.04381752,33.0,8.700001,-33.525,0.4675613,0.18657887,0.3130576,0.8051741,-41.950176,-60.430344,0.8956675,11.0554692,76.92715876,360.2998,0.0,,6.078578,0.39,2,2
1.200,416834662175319,1.5928721,8.264809,5.7480087,-0.7311287,0.17768528,0.93279046,0.36580598,8.320779,5.17699,1.227066,-0.055969715,0.5710187,32.025,8.55,-31.35,0.46392086,0.17891221,0.32306457,0.8049989,-44.464485,-59.5998,-1.326317,11.0554692,76.92715876,360.2998,0.0,,6.078578,0.41,2,2
1.220,416834682175319,1.6790137,8.275877,6.019893,-0.61552256,0.17188206,0.62315834,0.43226168,8.2612915,5.2663646,1.246752,0.014585018,0.7535286,31.875002,8.25,-29.7,0.45979893,0.17263258,0.33211768,0.8050408,-46.51844,-58.757793,-3.037281,11.0554692,76.92715876,360.2998,0.0,,6.078578,0.43,2,2
1.240,416834702175319,1.2556337,8.763115,6.0397835,-0.503658,0.07002037,0.36667156,0.48019573,8.20885,5.34365,0.77543795,0.554265,0.6961336,32.4,8.475,-29.550001,0.45575026,0.16752528,0.33938554,0.8054199,-48.04321,-57.978806,-4.274023,11.0554692,76.92715876,360.2998,0.0,,6.078578,0.45,2,2
1.260,416834722175319,1.1726327,8.826225,6.09437,-0.444175,0.017486002,0.2388481,0.51454914,8.160063,5.4147034,0.6580835,0.6661625,0.6796665,32.025,8.325001,-30.525002,0.45199135,0.16324073,0.3449159,0.8061103,-49.131424,-57.279606,-5.162599,11.0554692,76.92715876,360.2998,0.0,,6.078578,0.47,2,2
1.280,416834742175319,1.3202399,8.667551,6.0810595,-0.410272,0.035735585,0.16004656,0.52748877,8.113311,5.4832764,0.79275113,0.5542407,0.5977833,30.675001,8.775001,-26.775002,0.44847718,0.1596459,0.34914732,0.8070103,-49.90215,-56.65035,-5.795778,11.0554692,76.92715876,360.2998,0.0,,6.078578,0.49,2,2
1.300,416834762175319,1.4243276,8.473733,6.112316,-0.3884336,0.13530654,0.0891099,0.5132175,8.070541,5.5473733,0.91111016,0.40319157,0.5649426,31.275002,8.925,-27.150002,0.44501677,0.15690432,0.3525322,0.8080231,-50.43268,-56.077717,-6.194191,11.0554692,76.92715876,360.2998,0.0,,6.078578,0.51,2,2
1.320,416834782175319,1.3833506,8.282007,6.211618,-0.34735295,0.2581667,0.010155626,0.4702632,8.036837,5.599866,0.91308737,0.24517107,0.61175203,31.575,9.0,-27.45,0.4414259,0.15528075,0.35537282,0.8090849,-50.75978,-55.55476,-6.342162,11.0554692,76.92715876,360.2998,0.0,,6.078578,0.53,2,2
1.340,416834802175319,1.0876875,8.215906,6.3077793,-0.26786417,0.3638463,-0.06803506,0.41705894,8.014047,5.6366215,0.6706285,0.20185947,0.6711581,32.325,9.375,-28.650002,0.43772224,0.15497923,0.35777035,0.81011415,-50.901928,-55.095203,-6.231766,11.0554692,76.92715876,360.2998,0.0,,6.078578,0.55,2,2
1.360,416834822175319,0.7465607,8.066803,6.344719,-0.1689041,0.34605485,-0.11621702,0.36960527,8.00222,5.6567006,0.37695542,0.0645833,0.6880181,32.325,9.6,-27.000002,0.43414605,0.15581387,0.3596376,0.81106263,-50.884064,-54.717327,-5.9152226,11.0554692,76.92715876,360.2998,0.0,,6.078578,0.57,2,2
1.380,416834842175319,0.45747778,7.903194,6.1894846,-0.07773253,0.22808161,-0.1415679,0.334319,7.998846,5.6636624,0.12315878,-0.0956521,0.5258219,32.850002,9.75,-29.625002,0.43106392,0.15722655,0.36078972,0.8119317,-50.742424,-54.43344,-5.498829,11.0554692,76.92715876,360.2998,0.0,,6.078578,0.59,2,2
1.400,416834862175319,0.21595225,7.777272,6.051897,-0.006872228,0.09361502,-0.14294234,0.3117461,8.001828,5.660739,-0.09579384,-0.22455621,0.3911581,33.525,9.375,-30.750002,0.42871246,0.15873563,0.3611518,0.81273144,-50.513027,-54.243874,-5.070505,11.0554692,76.92715876,360.2998,0.0,,6.078578,0.61,2,2
1.420,416834882175319,0.095264256,7.6849985,5.879165,0.044440407,0.0029779659,-0.119958565,0.29364038,8.008876,5.6517315,-0.19837612,-0.32387733,0.22743368,34.050003,9.75,-31.575,0.42715323,0.16006365,0.36086097,0.8134294,-50.242,-54.138885,-4.688745,11.0554692,76.92715876,360.2998,0.0,,6.078578,0.63,2,2
1.440,416834902175319,0.047108695,7.679615,5.6505013,0.069791295,0.0027488912,-0.09025526,0.27379465,8.015484,5.643353,-0.22668596,-0.33586907,0.007148266,31.95,9.975,-27.300001,0.42625856,0.16131192,0.36018983,0.8139554,-49.961372,-54.10734,-4.349991,11.0554692,76.92715876,360.2998,0.0,,6.078578,0.65,2,2
1.460,416834922175319,-0.023629125,7.72463,5.6021957,0.06436987,0.07345648,-0.047036584,0.25914338,8.020176,5.637377,-0.2827725,-0.29554605,-0.035180807,31.650002,9.6,-26.250002,0.42572713,0.16270919,0.3595278,0.81425184,-49.703823,-54.12478,-4.026553,11.0554692,76.92715876,360.2998,0.0,,6.078578,0.67,2,2
1.480,416834942175319,0.031555347,7.819296,5.6961145,0.05199986,0.10063996,-0.0016035198,0.25342417,8.025859,5.6295424,-0.22186881,-0.20656323,0.06657195,32.775,9.825001,-28.95,0.42530406,0.16421904,0.35912976,0.8143477,-49.49815,-54.158764,-3.7225661,11.0554692,76.92715876,360.2998,0.0,,6.078578,0.69,2,2
1.500,416834962175319,0.1480559,7.9444704,5.721389,0.05925388,0.070631236,0.02275471,0.25450525,8.033959,5.6179276,-0.10644935,-0.08948922,0.10346103,32.775,9.6,-28.575,0.42501503,0.16567196,0.35894328,0.814288,-49.347008,-54.20384,-3.4603615,11.0554692,76.92715876,360.2998,0.0,,6.078578,0.71,2,2
1.520,416834982175319,0.18858433,8.053194,5.71077,0.077121675,0.019242238,0.025656318,0.26342845,8.04292,5.604679,-0.074844114,0.010273933,0.10609102,33.15,9.75,-29.1,0.42507485,0.16696662,0.35878083,0.81406516,-49.238438,-54.280617,-3.2574875,11.0554692,76.92715876,360.2998,0.0,,6.078578,0.73,2,2
1.540,416835002175319,0.2914757,8.112267,5.6113186,0.07887791,-0.02848157,0.033292126,0.27430153,8.051408,5.591957,0.017174177,0.060859203,0.019361496,32.325,9.75,-27.225,0.42559534,0.16785735,0.35861042,0.81368613,-49.19105,-54.389378,-3.158244,11.0554692,76.92715876,360.2998,0.0,,6.078578,0.75,2,2
1.560,416835022175319,0.4881358,8.136195,5.560471,0.07330377,-0.013515382,0.04123337,0.28152382,8.057469,5.582859,0.206612,0.078725815,-0.022387981,32.475002,9.825001,-27.375002,0.4264625,0.16826582,0.35859936,0.81315315,-49.23319,-54.512154,-3.1803043,11.0554692,76.92715876,360.2998,0.0,,6.078578,0.77,2,2
1.580,416835042175319,0.58953166,8.192726,5.6261244,0.053374305,0.0035888301,0.02351829,0.28109,8.061109,5.5776243,0.3084417,0.13161707,0.04850006,33.825,9.375,-30.150002,0.42695624,0.16834591,0.35865915,0.81285125,-49.279858,-54.57366,-3.222381,11.0554692,76.92715876,360.2998,0.0,,6.078578,0.79,2,2
1.600,416835062175319,0.62273204,8.177919,5.7215376,0.03604102,0.024510946,-0.01160643,0.2721093,8.064959,5.572502,0.35062277,0.11296129,0.14903569,33.300003,8.700001,-28.875002,0.42756337,0.16830549,0.35880858,0.81247425,-49.361053,-54.641518,-3.3027284,11.0554692,76.92715876,360.2998,0.0,,6.078578,0.81,2,2
1.620,416835082175319,0.53599226,8.139485,5.8271213,0.043371394,0.0448222,-0.044134974,0.26301837,8.071582,5.563342,0.2729739,0.06790352,0.26377916,32.4,9.225,-26.925001,0.42836672,0.1682628,0.35904083,0.8119578,-49.475025,-54.731766,-3.4113412,11.0554692,76.92715876,360.2998,0.0,,6.078578,0.83,2,2
1.640,416835102175319,0.5316553,8.060223,5.8323555,0.07116574,0.023671009,-0.059712026,0.2541462,8.08292,5.547269,0.2775091,-0.022696972,0.28508663,33.300003,9.225,-28.800001,0.42888606,0.16828538,0.3591216,0.81164396,-49.53242,-54.79309,-3.4674041,11.0554692,76.92715876,360.2998,0.0,,6.078578,0.85,2,2
1.660,416835122175319,0.48678985,8.046016,5.632555,0.10445787,-0.0013744456,-0.072845615,0.24049643,8.097391,5.5267353,0.24629343,-0.05137539,0.1058197,32.25,9.6,-26.325,0.42954466,0.168333,0.35898063,0.8113484,-49.557274,-54.872864,-3.5115972,11.0554692,76.92715876,360.2998,0.0,,6.078578,0.87,2,2
1.680,416835142175319,0.30119655,8.079964,5.4574304,0.118355036,0.031077743,-0.07528908,0.22310905,8.111658,5.5065055,0.078087494,-0.031694412,-0.049075127,33.15,9.450001,-29.025002,0.43044248,0.16883571,0.35854504,0.81096005,-49.51567,-55.006165,-3.4817321,11.0554692,76.92715876,360.2998,0.0,,6.078578,0.89,2,2
1.700,416835162175319,0.1849951,8.095817,5.385496,0.10972658,0.059788384,-0.058032148,0.2094857,8.124131,5.488625,-0.024490595,-0.02831459,-0.10312891,32.475002,9.225,-26.7,0.432202,0.17103714,0.35743177,0.810052,-49.302265,-55.333866,-3.2117894,11.0554692,76.92715876,360.2998,0.0,,6.078578,0.91,2,2
1.720,416835182175319,0.1311566,8.083404,5.3205905,0.09056069,0.050243624,-0.033368487,0.20159677,8.133955,5.474351,-0.07044017,-0.050551414,-0.15376043,32.475002,9.225,-26.7,0.432202,0.17103714,0.35743177,0.810052,-49.302265,-55.333866,-3.2117894,11.0554692,76.92715876,360.2998,0.0,,6.078578,0.93,2,2
1.740,416835202175319,0.08823533,8.069645,5.2286167,0.05871937,0.018631374,-0.012675443,0.1991461,8.13868,5.467413,-0.11091077,-0.06903601,-0.23879623,33.075,9.225,-28.500002,0.43262306,0.17164886,0.35716757,0.8098141,-49.245426,-55.416847,-3.1339245,11.0554692,76.92715876,360.2998,0.0,,6.078578,0.95,2,2
1.760,416835222175319,0.08150552,8.080263,5.2751274,0.020463968,-0.0054214243,0.005268708,0.20145087,8.138893,5.467011,-0.11994535,-0.058630466,-0.1918838,32.7,9.225,-28.275002,0.43265957,0.17170112,0.3571437,0.80979395,-49.24034,-55.424,-3.1271825,11.0554692,76.92715876,360.2998,0.0,,6.078578,0.97,2,2
1.780,416835242175319,0.12323037,8.105537,5.3629136,-0.009850194,-0.03077231,0.009392045,0.2016699,8.136375,5.4707503,-0.07843953,-0.03083849,-0.10783672,32.775,9.825001,-27.45,0.43270084,0.17175905,0.35711357,0.80977285,-49.234062,-55.43204,-3.1194084,11.0554692,76.92715876,360.2998,0.0,,6.078578,0.99,2,2
1.800,416835262175319,0.084346995,8.124979,5.4611692,-0.02351829,-0.029092433,0.0063377214,0.20182419,8.132879,5.4759407,-0.11747719,-0.007900238,-0.0147717,33.75,9.450001,-29.175001,0.4327396,0.171822,0.35707602,0.80975527,-49.225784,-55.44007,-3.1098557,11.05526852,76.92718553,416.37463,0.29,14.0,6.8757463,0.01,2,2
1.820,416835282175319,0.022432713,8.129765,5.5248775,-0.024510946,-0.02596175,0.021074833,0.21059963,8.128013,5.4828334,-0.18816692,0.0017518997,0.0420444,34.725002,9.3,-31.875002,0.43311828,0.17270616,0.3565174,0.8096097,-49.08901,-55.53369,-2.9555483,11.05526852,76.92718553,416.37463,0.29,14.0,6.8757463,0.03,2,2
1.840,416835302175319,0.05697909,8.096563,5.589484,-0.024587305,-0.052610725,0.050167266,0.23150678,8.122705,5.489849,-0.17452769,-0.026141644,0.099635124,33.675003,9.900001,-30.45,0.4334554,0.17374767,0.35579953,0.8095233,-48.906273,-55.63142,-2.7557712,11.05526852,76.92718553,416.37463,0.29,14.0,6.8757463,0.05,2,2
1.860,416835322175319,0.21849462,8.070542,5.636144,-0.018860448,-0.08139773,0.07544179,0.2577677,8.117966,5.4956875,-0.03927309,-0.047423363,0.14045668,31.875002,9.225,-26.175001,0.43351296,0.17392515,0.3555058,0.80958515,-48.841522,-55.64877,-2.7038584,11.05526852,76.92718553,416.37463,0.29,14.0,6.8757463,0.07,2,2
1.880,416835342175319,0.3952644,8.080113,5.7160044,-0.0032070398,-0.0810923,0.07719803,0.28045768,8.117266,5.4956098,0.11480671,-0.03715229,0.22039485,33.0,9.450001,-29.1,0.4335567,0.17337662,0.35557258,0.8096509,-48.89567,-55.62451,-2.7991364,11.05526852,76.92718553,416.37463,0.29,14.0,6.8757463,0.09,2,2
1.900,416835362175319,0.47587258,8.110173,5.663512,0.022831067,-0.05390881,0.061773695,0.29633778,8.119933,5.4908338,0.17953481,-0.009759903,0.17267847,32.475002,8.775001,-27.825,0.43374133,0.1724774,0.35585982,0.8096179,-49.02855,-55.597107,-2.9848206,11.05526852,76.92718553,416.37463,0.29,14.0,6.8757463,0.11,2,2
1.920,416835382175319,0.45209393,8.160722,5.573333,0.035735585,-0.021380264,0.0504727,0.31124255,8.122928,5.485578,0.14085138,0.037794113,0.08775449,33.45,9.0,-30.675001,0.4341509,0.17154872,0.35627252,0.8094139,-49.20696,-55.59374,-3.21036,11.05526852,76.92718553,416.37463,0.29,14.0,6.8757463,0.13,2,2
1.940,416835402175319,0.45912284,8.206036,5.550152,0.03245219,-0.009239329,0.054519676,0.32668555,8.126808,5.478927,0.1324373,0.07922745,0.07122493,32.100002,9.0,-26.625002,0.43475544,0.17072268,0.35675737,0.8090502,-49.409466,-55.618023,-3.4475067,11.05526852,76.92718553,416.37463,0.29,14.0,6.8757463,0.15,2,2
1.960,416835422175319,0.5241777,8.239236,5.4795637,0.028939717,-0.0016035198,0.052610725,0.3392659,8.129848,5.473653,0.18491179,0.10938835,0.0059108734,32.025,9.225,-26.775002,0.4351231,0.17034538,0.35702285,0.8088147,-49.518658,-55.63945,-3.5698266,11.05526852,76.92718553,416.37463,0.29,14.0,6.8757463,0.17,2,2
1.980,416835442175319,0.5403293,8.247461,5.456234,0.017715078,0.0034361142,0.037797254,0.3513512,8.130172,5.4724092,0.18897808,0.11728954,-0.016175508,31.725,9.0,-26.925001,0.4351636,0.17031454,0.35704952,0.8087876,-49.52947,-55.642387,-3.5814157,11.05526852,76.92718553,416.37463,0.29,14.0,6.8757463,0.19,2,2
2.000,416835462175319,0.5466105,8.217252,5.478368,-0.0013744456,-0.014126247,0.024052799,0.36185127,8.127512,5.4756737,0.18475917,0.0897398,0.0026938915,32.925003,8.775001,-30.000002,0.43521577,0.17027304,0.35708278,0.8087533,-49.543297,-55.646072,-3.596505,11.05526852,76.92718553,416.37463,0.29,14.0,6.8757463,0.21,2,2
2.020,416835482175319,0.57083774,8.15803,5.558228,-0.012064578,-0.005879573,0.017104212,0.37228003,8.124389,5.479608,0.19855773,0.03364134,0.07861996,33.075,8.775001,-28.500002,0.43527195,0.17021674,0.35712397,0.8087166,-49.56002,-55.649395,-3.6150804,11.05526852,76.92718553,416.37463,0.29,14.0,6.8757463,0.23,2,2
2.040,416835502175319,0.605085,8.109426,5.6276197,-0.002519817,-0.004199695,0.012828159,0.3834801,8.122896,5.481047,0.22160491,-0.01347065,0.14657259,32.475002,8.85,-27.900002,0.4353246,0.17014667,0.35717338,0.8086809,-49.578987,-55.65151,-3.636251,11.05526852,76.92718553,416.37463,0.29,14.0,6.8757463,0.25,2,2
2.060,416835522175319,0.602094,8.090282,5.6377892,0.014508037,-0.02802342,0.004276053,0.39691168,8.122773,5.4802737,0.20518231,-0.032490253,0.15751553,32.175003,9.0,-26.250002,0.43537608,0.17006285,0.35722718,0.80864674,-49.599632,-55.652725,-3.6598506,11.05526852,76.92718553,416.37463,0.29,14.0,6.8757463,0.27,2,2
2.080,416835542175319,0.6806085,8.051399,5.566902,0.021074831,-0.035353795,-0.0010690133,0.4050111,8.12282,5.479613,0.2755974,-0.07142067,0.087289095,31.575,8.475,-26.775002,0.43543163,0.16996305,0.357283,0.8086127,-49.622105,-55.653526,-3.6865177,11.05526852,76.92718553,416.37463,0.29,14.0,6.8757463,0.29,2,2
2.100,416835562175319,0.7043872,8.03779,5.541628,0.020005818,0.0067195124,-0.008628464,0.40743962,8.122997,5.479169,0.29694754,-0.085206985,0.062458754,33.15,8.775001,-28.875002,0.43549114,0.1698527,0.35734263,0.80857694,-49.646374,-55.654186,-3.7155943,11.05526852,76.92718553,416.37463,0.29,14.0,6.8757463,0.31,2,2
2.120,416835582175319,0.6726823,8.0614195,5.5654063,0.021456623,0.03405571,-0.017409645,0.40826097,8.124461,5.4769382,0.26442128,-0.06304169,0.088468075,32.175003,8.775001,-26.775002,0.4355504,0.16973878,0.35740784,0.8085395,-49.671955,-55.654583,-3.7457705,11.05526852,76.92718553,416.37463,0.29,14.0,6.8757463,0.33,2,2
2.140,416835602175319,0.6354439,8.092825,5.5283175,0.023518292,0.01359174,-0.033063054,0.40493834,8.127539,5.472617,0.23050562,-0.03471327,0.055700302,33.15,8.85,-28.500002,0.4356119,0.16962108,0.35747522,0.80850077,-49.69842,-55.655033,-3.7769785,11.05526852,76.92718553,416.37463,0.29,14.0,6.8757463,0.35,2,2
2.160,416835622175319,0.581755,8.136345,5.4536915,0.021914773,-0.0011453714,-0.057803072,0.39134783,8.130883,5.468636,0.19040716,0.005461693,-0.014944792,32.025,8.925,-27.075,0.4365719,0.16812868,0.3582292,0.807955,-50.030556,-55.68168,-4.1811314,11.05526852,76.92718553,416.37463,0.29,14.0,6.8757463,0.37,2,2
2.180,416835642175319,0.39137608,8.175377,5.432904,0.014889827,7.635809E-5,-0.08261946,0.37266755,8.133368,5.4662457,0.018708512,0.04200983,-0.033341885,33.0,9.225,-28.95,0.4378544,0.16658695,0.3588357,0.8073121,-50.367382,-55.74341,-4.611982,11.05526852,76.92718553,416.37463,0.29,14.0,6.8757463,0.39,2,2
2.200,416835662175319,0.1855933,8.151749,5.4136114,0.005803215,-0.0074830926,-0.080099635,0.3583711,8.132154,5.469006,-0.1727778,0.019594193,-0.05539441,33.825,8.475,-30.45,0.4385308,0.16617008,0.3587113,0.80709004,-50.432137,-55.800133,-4.733549,11.05526852,76.92718553,416.37463,0.29,14.0,6.8757463,0.41,2,2
2.220,416835682175319,0.08315059,8.07458,5.468647,-0.010995565,-0.022067487,-0.04520399,0.3566245,8.126327,5.4777746,-0.27347392,-0.05174637,-0.009127855,33.675003,9.075001,-31.2,0.43854195,0.16617343,0.3586918,0.807092,-50.429096,-55.80173,-4.7321935,11.05526852,76.92718553,416.37463,0.29,14.0,6.8757463,0.43,2,2
2.240,416835702175319,0.1378864,8.021191,5.600252,-0.02680169,-0.045051273,0.004276053,0.36092305,8.121804,5.484197,-0.22303665,-0.10061407,0.11605477,31.575,9.0,-26.400002,0.43851838,0.16623382,0.3583164,0.80726045,-50.34909,-55.804596,-4.6814175,11.05526852,76.92718553,416.37463,0.29,14.0,6.8757463,0.45,2,2
2.260,416835722175319,0.18140587,8.027022,5.6300125,-0.009773836,-0.03039052,0.04314232,0.36607078,8.121405,5.484448,-0.1846649,-0.094382286,0.14556456,32.925003,8.325001,-28.725,0.4384358,0.16624825,0.35803342,0.80742896,-50.285,-55.79753,-4.641012,11.05526852,76.92718553,416.37463,0.29,14.0,6.8757463,0.47,2,2
2.280,416835742175319,0.16360924,8.059326,5.6337514,0.026725331,2.2907427E-4,0.07391463,0.38036773,8.126084,5.476539,-0.21675849,-0.06675863,0.15721226,31.425001,8.55,-27.225,0.43819383,0.16634524,0.35781685,0.80763793,-50.21413,-55.776115,-4.578222,11.05526852,76.92718553,416.37463,0.29,14.0,6.8757463,0.49,2,2
2.300,416835762175319,0.19516459,8.108378,5.523382,0.056123197,-0.026725333,0.10774127,0.4025548,8.135215,5.461375,-0.20739022,-0.026836395,0.06200719,32.7,9.375,-28.95,0.43817928,0.16646701,0.35784712,0.80760837,-50.210697,-55.780983,-4.561334,11.05526852,76.92718553,416.37463,0.29,14.0,6.8757463,0.51,2,2
2.320,416835782175319,0.23539393,8.205887,5.4927244,0.088193595,-0.05627591,0.13278672,0.4323747,8.1473055,5.441035,-0.19698076,0.058580875,0.051689625,32.775,8.925,-29.85,0.4385691,0.16654164,0.3580066,0.80731094,-50.272343,-55.82944,-4.6076946,11.05526852,76.92718553,416.37463,0.29,14.0,6.8757463,0.53,2,2
2.340,416835802175319,0.34830523,8.288588,5.452944,0.10735948,-0.096669346,0.13545924,0.46524155,8.161022,5.417717,-0.11693631,0.12756586,0.035226583,33.375,8.700001,-29.925001,0.43944445,0.1664404,0.3581859,0.8067756,-50.39405,-55.924435,-4.734542,11.05526852,76.92718553,416.37463,0.29,14.0,6.8757463,0.55,2,2
2.360,416835822175319,0.53988063,8.302197,5.3309097,0.11003201,-0.09644027,0.12087486,0.49112532,8.172121,5.3986683,0.048755303,0.13007641,-0.06775856,31.650002,8.25,-26.925001,0.4407867,0.1660453,0.3584073,0.80602455,-50.587658,-56.057003,-4.9613233,11.05526852,76.92718553,416.37463,0.29,14.0,6.8757463,0.57,2,2
2.380,416835842175319,0.6566802,8.303843,5.1852465,0.06719512,-0.07261655,0.07490729,0.50146556,8.173915,5.3950005,0.1552147,0.12992764,-0.20975375,32.625,8.400001,-27.975,0.44225395,0.16548309,0.3586308,0.8052354,-50.806538,-56.19457,-5.2290506,11.05526852,76.92718553,416.37463,0.29,14.0,6.8757463,0.59,2,2
2.400,416835862175319,0.61151576,8.290533,5.2667522,-0.010155627,-0.038713552,0.014889827,0.49796793,8.167215,5.405462,0.11354783,0.12331724,-0.13870955,33.9,8.475,-30.225,0.44292027,0.16519491,0.35870847,0.80489355,-50.90418,-56.255295,-5.353776,11.05526852,76.92718553,416.37463,0.29,14.0,6.8757463,0.61,2,2
2.420,416835882175319,0.4482056,8.212168,5.5238314,-0.05123628,-0.015882483,-0.020234894,0.49368206,8.159596,5.417348,-0.04547645,0.05257082,0.10648322,32.775,8.775001,-28.125002,0.44353762,0.16479194,0.35868716,0.804647,-50.9857,-56.30474,-5.48042,11.05526852,76.92718553,416.37463,0.29,14.0,6.8757463,0.63,2,2
2.440,416835902175319,0.32213375,8.1659565,5.658876,-0.038713552,-0.027412554,-0.0073303767,0.49876344,8.15619,5.4220095,-0.17662969,0.009766102,0.23686647,31.800001,9.0,-27.225,0.44357327,0.16465853,0.35862616,0.8046827,-50.985966,-56.301964,-5.498106,11.05526852,76.92718553,416.37463,0.29,14.0,6.8757463,0.65,2,2
2.460,416835922175319,0.39152563,8.103294,5.6383877,0.0059559313,-0.040240712,0.027030766,0.51136565,8.159049,5.4165325,-0.11984004,-0.05575514,0.22185493,32.7,8.55,-29.775002,0.44343236,0.16446234,0.3585565,0.8048319,-50.971897,-56.275333,-5.50502,11.05526852,76.92718553,416.37463,0.29,14.0,6.8757463,0.67,2,2
2.480,416835942175319,0.49920264,8.044222,5.4801617,0.050549056,-0.045433063,0.048258312,0.5248842,8.166737,5.403636,-0.025681585,-0.1225152,0.07652593,33.600002,8.325001,-30.075,0.44328567,0.16404401,0.35852674,0.805012,-50.98013,-56.235497,-5.5492625,11.05526852,76.92718553,416.37463,0.29,14.0,6.8757463,0.69,2,2
2.500,416835962175319,0.522084,8.033005,5.2591248,0.06742419,-0.04276053,0.052228935,0.53705806,8.175829,5.3886724,-0.014974058,-0.14282417,-0.12954736,33.15,8.25,-29.475,0.44366816,0.16369599,0.35853413,0.80486906,-51.04137,-56.260433,-5.6449256,11.05526852,76.92718553,416.37463,0.29,14.0,6.8757463,0.71,2,2
2.520,416835982175319,0.5116154,8.078768,5.092824,0.05581776,-0.023747366,0.060704682,0.5519191,8.181102,5.3791575,-0.040303707,-0.1023345,-0.2863338,31.95,8.400001,-27.525002,0.44438624,0.16350196,0.3585736,0.8044945,-51.131023,-56.33238,-5.7578874,11.05526852,76.92718553,416.37463,0.29,14.0,6.8757463,0.73,2,2
2.540,416836002175319,0.54780686,8.119744,5.077869,0.018173225,-0.027259838,0.07040216,0.57092494,8.181249,5.37695,-0.023118109,-0.061504364,-0.29908085,32.775,7.9500003,-29.325,0.4451867,0.16331595,0.35870883,0.804029,-51.2477,-56.41352,-5.889498,11.05526852,76.92718553,416.37463,0.29,14.0,6.8757463,0.75,2,2
2.560,416836022175319,0.60149574,8.102396,5.1360445,-0.018096868,-0.05711585,0.06895135,0.5906924,8.178426,5.3791094,0.010803372,-0.0760293,-0.24306512,31.725,8.475,-26.7,0.44595873,0.16293003,0.35890517,0.8035915,-51.38792,-56.479687,-6.055461,11.05526852,76.92718553,416.37463,0.29,14.0,6.8757463,0.77,2,2
2.580,416836042175319,0.5694918,8.142178,5.230262,-0.037339106,-0.08834632,0.06475166,0.6148814,8.17437,5.3825645,-0.045389593,-0.03219223,-0.15230298,32.025,7.9500003,-27.525002,0.44665316,0.16234773,0.35904533,0.8032609,-51.52315,-56.52623,-6.237086,11.05526852,76.92718553,416.37463,0.29,14.0,6.8757463,0.79,2,2
2.600,416836062175319,0.587438,8.182406,5.2716875,-0.045738496,-0.11163553,0.07811432,0.6447761,8.167311,5.389775,-0.05733815,0.015095711,-0.11808753,33.0,8.175,-30.075,0.447283,0.1615927,0.35910878,0.8030342,-51.648746,-56.5561,-6.4298186,11.05526852,76.92718553,416.37463,0.29,14.0,6.8757463,0.81,2,2
2.620,416836082175319,0.69705915,8.098957,5.3223853,-0.056504987,-0.11888954,0.09086613,0.6726967,8.158817,5.3992186,0.024362415,-0.05986023,-0.07683325,30.975,7.9500003,-26.85,0.4478022,0.16028048,0.35937572,0.80288744,-51.841553,-56.54004,-6.716491,11.05526852,76.92718553,416.37463,0.29,14.0,6.8757463,0.83,2,2
2.640,416836102175319,0.68359953,8.125577,5.3814583,-0.066736974,-0.123012885,0.08559742,0.6994754,8.149579,5.409757,-0.015875876,-0.024002075,-0.028298855,32.850002,7.5750003,-29.775002,0.44799486,0.15866391,0.35973695,0.8029381,-52.04044,-56.468143,-7.02152,11.05526852,76.92718553,416.37463,0.29,14.0,6.8757463,0.85,2,2
2.660,416836122175319,0.663111,8.166105,5.461767,-0.06856957,-0.12728894,0.086590074,0.7306384,8.140169,5.4197955,-0.06752741,0.025936604,0.041971922,32.550003,8.175,-31.275002,0.4478819,0.15711966,0.36000705,0.80318344,-52.184788,-56.36582,-7.2698135,11.05526852,76.92718553,416.37463,0.29,14.0,6.8757463,0.87,2,2
2.680,416836142175319,0.7978568,8.08131,5.4577293,-0.06299542,-0.14133883,0.081321366,0.7583268,8.130777,5.430083,0.03952998,-0.049467564,0.02764678,33.075,8.25,-31.575,0.44771346,0.1553287,0.3603261,0.8034816,-52.34837,-56.242516,-7.552877,11.05526852,76.92718553,416.37463,0.29,14.0,6.8757463,0.89,2,2
2.700,416836162175319,0.8083254,8.049306,5.481807,-0.061697334,-0.1510363,0.057115853,0.77839667,8.122767,5.4392214,0.029928744,-0.07346153,0.04258585,32.4,7.9500003,-29.400002,0.4475378,0.1533709,0.3605886,0.8038366,-52.509537,-56.109234,-7.852723,11.05526852,76.92718553,416.37463,0.29,14.0,6.8757463,0.91,2,2
2.720,416836182175319,0.70199436,8.123632,5.5253267,-0.056046836,-0.14095703,0.044974916,0.7985743,8.116299,5.445949,-0.09657997,0.0073337555,0.07937765,30.750002,7.9500003,-28.425001,0.44727057,0.15165822,0.36062545,0.8042939,-52.59985,-55.981567,-8.080474,11.05526852,76.92718553,416.37463,0.29,14.0,6.8757463,0.93,2,2
2.740,416836202175319,0.7142576,8.151599,5.477021,-0.050396338,-0.114995286,0.06429351,0.821342,8.108544,5.4541078,-0.10708442,0.04305458,0.022913694,31.35,7.9500003,-27.675001,0.44704983,0.15034622,0.36050868,0.80471617,-52.638317,-55.883484,-8.237375,11.05526852,76.92718553,416.37463,0.29,14.0,6.8757463,0.95,2,2
2.760,416836222175319,0.8545368,8.049306,5.4689455,-0.05123628,-0.088957176,0.0717766,0.83940625,8.101979,5.4611077,0.01513055,-0.05267334,0.007838011,31.35,8.175,-28.575,0.4468403,0.14892296,0.36062747,0.8050443,-52.730846,-55.777916,-8.43605,11.05526852,76.92718553,416.37463,0.29,14.0,6.8757463,0.97,2,2
2.780,416836242175319,0.79800636,8.12797,5.4786663,-0.052228935,-0.09598212,0.05505418,0.8593287,8.096998,5.465397,-0.06132233,0.030971527,0.013269663,31.275002,7.9500003,-28.500002,0.44667432,0.14777195,0.3606605,0.80533445,-52.7932,-55.693607,-8.590102,,,,,,,,2,2
2.800,416836262175319,0.78843504,8.196315,5.456383,-0.04917461,-0.12087485,0.056504987,0.8857191,8.09108,5.469948,-0.09728408,0.1052351,-0.013564587,30.375002,7.5750003,-27.000002,0.4467034,0.1467952,0.3605395,0.80555195,-52.834003,-55.64293,-8.724941,11.05529728,76.92716191,406.136,0.0,,4.0379243,0.01,2,2
2.820,416836282175319,0.9173484,8.092077,5.354389,-0.05963567,-0.13660462,0.06162098,0.9061489,8.084543,5.476262,0.011199474,0.007534504,-0.12187266,32.4,7.8750005,-31.575,0.44699353,0.14559425,0.36042798,0.8056589,-52.91721,-55.60889,-8.923966,11.05529728,76.92716191,406.136,0.0,,4.0379243,0.03,2,2
2.840,416836302175319,0.9071789,8.123184,5.3243294,-0.07658717,-0.10987929,0.049861833,0.92183304,8.076612,5.485339,-0.01465416,0.04657173,-0.16100979,31.2,8.1,-29.550001,0.44734973,0.14429455,0.36034894,0.80573016,-53.01959,-55.576237,-9.1483965,11.05529728,76.92716191,406.136,0.0,,4.0379243,0.05,2,2
2.860,416836322175319,0.84750783,8.225178,5.3479586,-0.098120145,-0.0807105,0.057879433,0.9395045,8.065592,5.498542,-0.09199664,0.15958643,-0.15058327,30.45,7.425,-28.425001,0.4475771,0.14316809,0.36029017,0.8058314,-53.101757,-55.538586,-9.334212,11.05529728,76.92716191,406.136,0.0,,4.0379243,0.07,2,2
2.880,416836342175319,0.8708379,8.2224865,5.3910294,-0.12011127,-0.07880155,0.070631236,0.96001047,8.0519705,5.5149393,-0.08917257,0.17051601,-0.12390995,31.95,8.175,-31.800001,0.44763693,0.1421198,0.3603153,0.80597275,-53.177933,-55.485435,-9.49728,11.05529728,76.92716191,406.136,0.0,,4.0379243,0.09,2,2
2.900,416836362175319,0.9800104,8.144569,5.366952,-0.14141518,-0.08506291,0.06375901,0.9749114,8.034698,5.537468,0.0050990283,0.10987234,-0.17051625,31.875002,8.25,-31.500002,0.44759113,0.14094903,0.36043677,0.8061494,-53.269188,-55.412186,-9.675325,11.05529728,76.92716191,406.136,0.0,,4.0379243,0.11,2,2
2.920,416836382175319,0.9877871,8.1659565,5.4266224,-0.17592904,-0.06895135,0.04276053,0.98681223,8.010588,5.5701942,9.7486377E-4,0.15536833,-0.14357162,30.150002,8.400001,-28.875002,0.4473483,0.13972822,0.36058483,0.80643034,-53.34781,-55.313503,-9.839709,11.05529728,76.92716191,406.136,0.0,,4.0379243,0.13,2,2
2.940,416836402175319,0.9683454,8.041978,5.6463137,-0.20158535,-0.061315548,0.03642281,0.996352,7.9860272,5.603663,-0.028006613,0.05595064,0.0426507,30.300001,8.025001,-29.1,0.44649118,0.13844225,0.3608058,0.80702686,-53.380363,-55.14112,-9.94819,11.05529728,76.92716191,406.136,0.0,,4.0379243,0.15,2,2
2.960,416836422175319,0.9182457,7.989934,5.8188963,-0.184023,-0.06360629,0.033826634,1.0108768,7.966698,5.62852,-0.09263107,0.02323556,0.19037604,31.125002,7.8,-29.550001,0.44521686,0.13711205,0.3610648,0.80784017,-53.37963,-54.91904,-10.0176935,11.05529728,76.92716191,406.136,0.0,,4.0379243,0.17,2,2
2.980,416836442175319,0.9548858,8.001748,5.768796,-0.14645481,-0.07261655,0.05322159,1.0286962,7.9476023,5.6522384,-0.0738104,0.05414605,0.11655784,31.575,8.475,-30.975,0.44385058,0.13579562,0.36134115,0.8086891,-53.37205,-54.68749,-10.076161,11.05529728,76.92716191,406.136,0.0,,4.0379243,0.19,2,2
3.000,416836462175319,1.054487,7.9109707,5.7785172,-0.13515382,-0.06803505,0.05833758,1.0449,7.9289827,5.675367,0.0095870495,-0.018012047,0.10315037,31.35,8.625,-31.95,0.4425285,0.13437927,0.36171633,0.8094814,-53.39379,-54.454243,-10.163687,11.05529728,76.92716191,406.136,0.0,,4.0379243,0.21,2,2
3.020,416836482175319,1.1268699,7.810771,5.8117175,-0.12209658,-0.05963567,0.040927935,1.0558597,7.913179,5.695362,0.07101023,-0.102407694,0.11635542,32.175003,8.400001,-32.775,0.44128582,0.1328967,0.36214474,0.81021225,-53.437237,-54.225693,-10.274553,11.05529728,76.92716191,406.136,0.0,,4.0379243,0.23,2,2
3.040,416836502175319,1.105484,7.7668033,5.7809095,-0.105297804,-0.046960227,0.02283107,1.0625364,7.897533,5.7158,0.04294771,-0.13072968,0.06510997,31.875002,8.55,-32.325,0.44011363,0.13149221,0.36254632,0.8108993,-53.477627,-54.01001,-10.379172,11.05529728,76.92716191,406.136,0.0,,4.0379243,0.25,2,2
3.060,416836522175319,1.0150055,7.7684484,5.802894,-0.106824964,-0.03466657,0.025732677,1.0732205,7.8791,5.739195,-0.058215022,-0.11065149,0.063699245,30.075,8.475,-28.575,0.4389212,0.1303033,0.36288613,0.8115859,-53.49158,-53.80531,-10.444544,11.05529728,76.92716191,406.136,0.0,,4.0379243,0.27,2,2
3.080,416836542175319,1.05015,7.7551384,5.8760247,-0.1184314,-0.026572615,0.052228935,1.0913324,7.8564157,5.766812,-0.0411824,-0.10127759,0.109212875,30.375002,8.55,-28.725,0.4376723,0.12922058,0.36329013,0.8122529,-53.505836,-53.59966,-10.494398,11.05529728,76.92716191,406.136,0.0,,4.0379243,0.29,2,2
3.100,416836562175319,1.1973085,7.7150583,6.0110693,-0.13003781,-0.024892738,0.07391463,1.1141856,7.831259,5.7965813,0.08312303,-0.11620045,0.21448827,29.925001,8.700001,-28.275002,0.43639988,0.12803182,0.36388162,0.8128606,-53.55872,-53.383083,-10.573922,11.05529728,76.92716191,406.136,0.0,,4.0379243,0.31,2,2
3.120,416836582175319,1.3444672,7.700851,6.1604714,-0.13041961,-0.024816379,0.079717845,1.137645,7.808166,5.823117,0.20682222,-0.10731506,0.33735466,29.85,8.325001,-28.575,0.43513665,0.12671308,0.36463347,0.8134068,-53.649155,-53.158173,-10.687019,11.05529728,76.92716191,406.136,0.0,,4.0379243,0.33,2,2
3.140,416836602175319,1.432553,7.6929245,6.2494545,-0.103847004,-0.02000582,0.07483093,1.1599993,7.7913017,5.841268,0.2725538,-0.09837699,0.40818644,31.2,8.700001,-30.525002,0.4339572,0.12535328,0.36546817,0.8138727,-53.76457,-52.939262,-10.821867,11.05529728,76.92716191,406.136,0.0,,4.0379243,0.35,2,2
3.160,416836622175319,1.5085251,7.7071323,6.216703,-0.060551964,-0.006719512,0.06643154,1.180013,7.7800493,5.852247,0.3285122,-0.07291722,0.3644557,30.975,8.325001,-30.525002,0.43297577,0.12406767,0.36633062,0.81420517,-53.899246,-52.746193,-10.969848,11.05529728,76.92716191,406.136,0.0,,4.0379243,0.37,2,2
3.180,416836642175319,1.5240785,7.757531,6.1488066,-0.03077231,0.004886918,0.06162098,1.1978922,7.7726483,5.8584447,0.3261863,-0.015117407,0.29036164,31.050001,8.700001,-30.075,0.4322447,0.12290253,0.36720473,0.8143774,-54.052734,-52.587437,-11.12893,11.05529728,76.92716191,406.136,0.0,,4.0379243,0.39,2,2
3.200,416836662175319,1.5089738,7.827072,6.11426,-0.012446368,0.012064578,0.06162098,1.2164872,7.7687225,5.8598213,0.29248667,0.058349848,0.25443888,30.825,8.475,-29.85,0.43174908,0.12185092,0.3680929,0.8143983,-54.22453,-52.460766,-11.298786,11.05529728,76.92716191,406.136,0.0,,4.0379243,0.41,2,2
3.220,416836682175319,1.5390337,7.8821073,6.0530934,0.002672533,0.008857539,0.061773695,1.2349982,7.766202,5.8592896,0.30403543,0.115905285,0.19380379,29.775002,8.775001,-27.6,0.4317383,0.121806964,0.3681327,0.8143926,-54.23315,-52.45653,-11.307219,11.05529728,76.92716191,406.136,0.0,,4.0379243,0.43,2,2
3.240,416836702175319,1.5873387,7.8698444,5.996413,0.0068722283,0.004657843,0.05077813,1.2484745,7.763349,5.8602147,0.33886427,0.10649514,0.13619876,30.975,8.55,-31.35,0.43173367,0.12174697,0.36818734,0.81437933,-54.245937,-52.45184,-11.319872,11.05529728,76.92716191,406.136,0.0,,4.0379243,0.45,2,2
3.260,416836722175319,1.5903298,7.8405323,5.992226,7.635809E-5,0.0066431537,0.02199113,1.253193,7.760358,5.8631673,0.33713675,0.08017421,0.12905884,30.225,8.55,-28.650002,0.43173358,0.12167285,0.3682526,0.81436074,-54.26186,-52.446674,-11.3359375,11.05529728,76.92716191,406.136,0.0,,4.0379243,0.47,2,2
3.280,416836742175319,1.532902,7.7647095,6.049654,0.004886918,0.017104212,-0.013439024,1.2495081,7.761111,5.8629584,0.28339386,0.00359869,0.18669558,29.85,8.400001,-28.650002,0.43173254,0.12158952,0.3683238,0.8143413,-54.279266,-52.440796,-11.353693,11.05529728,76.92716191,406.136,0.0,,4.0379243,0.49,2,2
3.300,416836762175319,1.4333007,7.735846,6.031558,0.028176134,0.023823723,-0.0424551,1.2401876,7.768274,5.855446,0.19311315,-0.032427788,0.17611217,31.125002,8.1,-30.6,0.43167716,0.12047462,0.3692526,0.8141133,-54.503437,-52.357742,-11.584038,11.05529728,76.92716191,406.136,0.0,,4.0379243,0.51,2,2
3.320,416836782175319,1.3416257,7.7775707,5.941079,0.06345357,0.039095342,-0.05009091,1.2292602,7.780937,5.8409176,0.112365544,-0.003366232,0.10016179,31.575,8.775001,-32.25,0.43170872,0.119123936,0.3704161,0.81376755,-54.790848,-52.267075,-11.876437,11.05529728,76.92716191,406.136,0.0,,4.0379243,0.53,2,2
3.340,416836802175319,1.299901,7.8167534,5.739933,0.082008585,0.052916154,-0.045814857,1.2137003,7.7960296,5.824023,0.086200655,0.02072382,-0.084089994,30.000002,8.55,-28.800001,0.4321329,0.118724614,0.3709552,0.81335753,-54.952225,-52.28282,-12.026891,11.05529728,76.92716191,406.136,0.0,,4.0379243,0.55,2,2
3.360,416836822175319,1.2254243,7.8767233,5.580212,0.07696895,0.07658716,-0.04634936,1.1952884,7.8092213,5.8101406,0.03013587,0.06750226,-0.2299285,30.150002,8.625,-28.425001,0.43273634,0.119070664,0.37112167,0.8129115,-55.02429,-52.36644,-12.062914,11.05529728,76.92716191,406.136,0.0,,4.0379243,0.57,2,2
3.380,416836842175319,1.1585748,7.8957167,5.5168023,0.050625414,0.07605266,-0.055283256,1.1757793,7.818103,5.8021727,-0.017204583,0.07761383,-0.28537035,30.375002,8.400001,-29.175001,0.4333353,0.119867794,0.37106374,0.812502,-55.031216,-52.47887,-12.016885,11.05529728,76.92716191,406.136,0.0,,4.0379243,0.59,2,2
3.400,416836862175319,1.077518,7.906933,5.5311594,0.012293653,0.047571093,-0.069867656,1.1537459,7.823299,5.7995915,-0.0762279,0.08363414,-0.26843238,32.025,8.1,-30.750002,0.4338086,0.12083959,0.37078586,0.81223243,-54.975864,-52.590893,-11.912685,11.05529728,76.92716191,406.136,0.0,,4.0379243,0.61,2,2
3.420,416836882175319,0.95967144,7.9187474,5.6114683,-0.012522727,0.028939717,-0.07780889,1.1323375,7.826502,5.799488,-0.17266601,0.09224558,-0.18801999,30.675001,8.625,-30.750002,0.43407714,0.121873684,0.37029052,0.8121605,-54.856354,-52.68719,-11.756481,11.05529728,76.92716191,406.136,0.0,,4.0379243,0.63,2,2
3.440,416836902175319,0.914806,7.8797145,5.630461,-0.020922117,0.029397866,-0.069027714,1.1101758,7.828394,5.80122,-0.19536984,0.051320553,-0.17075872,30.6,8.400001,-27.900002,0.4341516,0.122938454,0.3696778,0.8122392,-54.69369,-52.76545,-11.56269,11.05529728,76.92716191,406.136,0.0,,4.0379243,0.65,2,2
3.460,416836922175319,0.86754775,7.899605,5.675177,-0.027412554,0.034972005,-0.06314814,1.0886924,7.8300076,5.8031116,-0.22114468,0.069597244,-0.12793446,31.35,8.700001,-30.300001,0.43405828,0.12402979,0.36903554,0.81241506,-54.50699,-52.826904,-11.342897,11.05529728,76.92716191,406.136,0.0,,4.0379243,0.67,2,2
3.480,416836942175319,0.7992028,7.988139,5.683552,-0.03688096,0.027412554,-0.052687082,1.0714754,7.8290114,5.807659,-0.27227262,0.15912771,-0.12410736,31.35,8.325001,-29.925001,0.43385032,0.12509103,0.36840048,0.8126516,-54.311523,-52.873558,-11.114459,11.05529728,76.92716191,406.136,0.0,,4.0379243,0.69,2,2
3.500,416836962175319,0.8362915,7.9887376,5.714061,-0.05070177,0.030619593,-0.0344375,1.0557963,7.8259683,5.814628,-0.21950477,0.16276932,-0.10056758,30.750002,9.0,-28.425001,0.4335543,0.12607393,0.367841,0.8129112,-54.1254,-52.90462,-10.893532,11.05529728,76.92716191,406.136,0.0,,4.0379243,0.71,2,2
3.520,416836982175319,0.8591729,8.002945,5.7689457,-0.060857397,0.036651883,-0.027412554,1.0388769,7.821094,5.824226,-0.17970401,0.18185067,-0.05527997,31.275002,8.625,-31.125002,0.4331563,0.12700298,0.36737803,0.8131882,-53.950043,-52.919716,-10.677319,11.05529728,76.92716191,406.136,0.0,,4.0379243,0.73,2,2
3.540,416837002175319,0.85902333,8.002945,5.8266726,-0.071242094,0.040011637,-0.03558287,1.0158402,7.8151875,5.836207,-0.15681684,0.18775749,-0.009534359,30.825,8.475,-27.975,0.43263525,0.12791294,0.36696053,0.81351155,-53.772274,-52.91915,-10.454189,11.05529728,76.92716191,406.136,0.0,,4.0379243,0.75,2,2
3.560,416837022175319,0.7736295,8.002795,5.916852,-0.07254019,0.061773695,-0.043753184,0.99048436,7.810355,5.847023,-0.21685487,0.19244003,0.069829226,30.6,8.85,-28.2,0.43191242,0.12889199,0.36657345,0.81391513,-53.577168,-52.899334,-10.202022,11.05529728,76.92716191,406.136,0.0,,4.0379243,0.77,2,2
3.580,416837042175319,0.71814585,8.010871,5.9611197,-0.059788384,0.077427104,-0.039782565,0.96862024,7.804459,5.8585486,-0.25047436,0.20641208,0.10257077,31.500002,9.3,-29.625002,0.43104294,0.12998652,0.36624438,0.81434953,-53.372913,-52.86857,-9.923278,11.05529728,76.92716191,406.136,0.0,,4.0379243,0.79,2,2
3.600,416837062175319,0.7377372,7.963314,5.9854965,-0.060322892,0.06780599,-0.03436114,0.95094407,7.7936287,5.875836,-0.21320692,0.16968536,0.10966039,31.2,9.3,-28.800001,0.43008694,0.13110973,0.36596757,0.8147987,-53.169254,-52.82867,-9.6364155,11.05529728,76.92716191,406.136,0.0,,4.0379243,0.81,2,2
3.620,416837082175319,0.7800602,7.7941713,6.1052866,-0.06994401,0.048029236,-0.03672824,0.93398553,7.7815347,5.8945556,-0.15392533,0.012636423,0.21073127,32.025,9.150001,-30.900002,0.42897418,0.13202243,0.3657663,0.81532794,-52.977524,-52.75814,-9.369716,11.05529728,76.92716191,406.136,0.0,,4.0379243,0.83,2,2
3.640,416837102175319,0.76331043,7.672586,6.2353964,-0.05322159,0.0448222,-0.034972005,0.9181642,7.7747707,5.905955,-0.15485379,-0.10218477,0.3294418,30.975,9.525001,-28.2,0.42779717,0.13269451,0.36564216,0.8158928,-52.80865,-52.665714,-9.137873,11.05529728,76.92716191,406.136,0.0,,4.0379243,0.85,2,2
3.660,416837122175319,0.73923266,7.661818,6.2397337,-0.005955931,0.057650357,-0.01641699,0.9066058,7.7746263,5.90793,-0.16737312,-0.11280823,0.3318038,32.100002,9.3,-30.45,0.42721677,0.13301077,0.36561203,0.81615907,-52.732395,-52.618843,-9.028887,11.05529728,76.92716191,406.136,0.0,,4.0379243,0.87,2,2
3.680,416837142175319,0.7426723,7.66451,6.1387863,0.040087998,0.06398808,0.010995565,0.903421,7.7801766,5.901107,-0.16074866,-0.11566663,0.23767972,31.425001,9.225,-29.85,0.4261583,0.13379453,0.3657053,0.8165426,-52.609818,-52.543148,-8.815157,11.05529728,76.92716191,406.136,0.0,,4.0379243,0.89,2,2
3.700,416837162175319,0.7758727,7.693822,5.9781685,0.06841685,0.033750273,0.032223113,0.90905315,7.7888536,5.8887835,-0.13318041,-0.0950315,0.089384794,30.6,9.450001,-27.225,0.42549637,0.13453197,0.3658644,0.8166961,-52.538418,-52.508476,-8.656283,11.05529728,76.92716191,406.136,0.0,,4.0379243,0.91,2,2
3.720,416837182175319,0.81012,7.74452,5.796912,0.071394816,-9.162971E-4,0.05444332,0.9225212,7.7954893,5.877898,-0.11240116,-0.050969362,-0.08098626,31.2,9.3,-29.1,0.4254236,0.13522904,0.36597893,0.81656843,-52.5142,-52.538,-8.561156,11.05529728,76.92716191,406.136,0.0,,4.0379243,0.93,2,2
3.740,416837202175319,0.88953185,7.8092756,5.7338014,0.046273,-0.017867792,0.07765618,0.94297653,7.7966857,5.8730636,-0.053444713,0.01259017,-0.1392622,30.45,8.775001,-27.375002,0.42585996,0.1356088,0.3661834,0.8161867,-52.57001,-52.60597,-8.572324,11.05529728,76.92716191,406.136,0.0,,4.0379243,0.95,2,2
3.760,416837222175319,1.0660024,7.778468,5.794818,0.018478658,-0.014966186,0.09101884,0.96607757,7.7948046,5.871805,0.09992486,-0.016336203,-0.07698703,30.975,8.85,-27.750002,0.42647165,0.13546595,0.36664823,0.8156823,-52.719143,-52.661625,-8.699349,11.05529728,76.92716191,406.136,0.0,,4.0379243,0.97,2,2
3.780,416837242175319,1.1865408,7.840532,5.9158053,0.0031306818,-0.028099779,0.079794206,0.99010766,7.7918234,5.87176,0.19643325,0.04870844,0.04404545,30.6,9.075001,-27.150002,0.4270295,0.13486059,0.367297,0.8151983,-52.923546,-52.68315,-8.902723,11.05529728,76.92716191,406.136,0.0,,4.0379243,0.99,2,2
3.800,416837262175319,1.2501003,7.8964643,6.023931,9.926552E-4,-0.04970912,0.06345357,1.0141333,7.7895613,5.8706613,0.23596692,0.106903076,0.15326977,31.425001,9.075001,-29.325,0.42751008,0.13392988,0.36796302,0.81479895,-53.142395,-52.677174,-9.145202,11.05531685,76.92714454,402.42938,0.0,,3.7900925,0.01,2,2
3.820,416837282175319,1.2785151,7.9737825,6.126374,0.012522727,-0.0584903,0.05887209,1.0413927,7.7898755,5.8654695,0.23712236,0.1839068,0.2609043,31.275002,8.55,-29.400002,0.42794698,0.1327998,0.36858526,0.81447273,-53.36015,-52.655106,-9.40683,11.05531685,76.92714454,402.42938,0.0,,3.7900925,0.03,2,2
3.840,416837302175319,1.394866,8.100452,6.223283,0.039095342,-0.051847145,0.06925678,1.0780064,7.7930713,5.854598,0.31685966,0.30738115,0.368685,32.475002,8.925,-31.425001,0.42844737,0.13159753,0.36920577,0.8141233,-53.587414,-52.63553,-9.685106,11.05531685,76.92714454,402.42938,0.0,,3.7900925,0.05,2,2
3.860,416837322175319,1.6190436,8.260323,6.30434,0.06513345,-0.08101593,0.07147117,1.121442,7.798855,5.8387165,0.4976017,0.46146822,0.46562338,31.125002,8.775001,-29.550001,0.42916045,0.13032009,0.36978897,0.8136876,-53.83192,-52.635136,-9.993632,11.05531685,76.92714454,402.42938,0.0,,3.7900925,0.07,2,2
3.880,416837342175319,1.8160028,8.43111,6.4121666,0.088193595,-0.12644899,0.0542906,1.1715161,7.8093157,5.814854,0.6444868,0.6217952,0.59731245,31.650002,8.400001,-30.45,0.4301586,0.12890647,0.3702032,0.8131963,-54.080082,-52.65997,-10.337369,11.05531685,76.92714454,402.42938,0.0,,3.7900925,0.09,2,2
3.900,416837362175319,2.101347,8.539835,6.4398336,0.12774709,-0.15447241,0.030237803,1.2221721,7.827629,5.7796974,0.8791748,0.7122054,0.660136,30.075,8.475,-27.525002,0.4314932,0.12740374,0.370358,0.81265396,-54.318382,-52.719467,-10.7080145,11.05531685,76.92714454,402.42938,0.0,,3.7900925,0.11,2,2
3.920,416837382175319,2.5308585,8.452047,6.283403,0.18822269,-0.14248419,-0.038484477,1.2477633,7.8583193,5.7323904,1.2830952,0.59372854,0.5510125,31.575,8.400001,-29.925001,0.4331987,0.12606151,0.3701402,0.8120536,-54.516876,-52.833374,-11.06554,11.05531685,76.92714454,402.42938,0.0,,3.7900925,0.13,2,2
3.940,416837402175319,2.648107,8.206335,6.0550375,0.2676351,-0.12545633,-0.2095266,1.2222208,7.9086967,5.6682525,1.4258862,0.29763842,0.38678527,30.675001,8.325001,-29.775002,0.43526936,0.12528406,0.36918265,0.8115008,-54.586037,-53.029785,-11.320562,11.05531685,76.92714454,402.42938,0.0,,3.7900925,0.15,2,2
3.960,416837422175319,2.0005493,8.130812,5.762067,0.35827214,-0.15447241,-0.4270708,1.1600336,7.970268,5.5945997,0.84051573,0.16054392,0.16746688,30.225,8.25,-29.7,0.43779412,0.12533683,0.36695173,0.81114066,-54.42014,-53.341694,-11.396155,11.05531685,76.92714454,402.42938,0.0,,3.7900925,0.17,2,2
3.980,416837442175319,1.2136097,8.1557865,5.2523956,0.42172572,-0.21105376,-0.5426769,1.1044877,8.03117,5.5182247,0.1091221,0.12461662,-0.26582932,30.6,8.400001,-28.2,0.44092128,0.12628154,0.36322626,0.8109632,-53.984856,-53.79216,-11.274973,11.05531685,76.92714454,402.42938,0.0,,3.7900925,0.19,2,2
4.000,416837462175319,0.59117675,8.250452,4.868646,0.4228711,-0.27068943,-0.51984584,1.0759847,8.084146,5.4460297,-0.48480797,0.16630697,-0.5773835,31.125002,8.925,-30.150002,0.44446224,0.12778828,0.35839707,0.8109243,-53.345856,-54.33584,-11.009759,11.05531685,76.92714454,402.42938,0.0,,3.7900925,0.21,2,2
4.020,416837482175319,0.47422755,8.317601,4.610072,0.37736166,-0.3733147,-0.41347903,1.0660278,8.12801,5.382325,-0.5918002,0.18959141,-0.7722533,30.225,8.400001,-29.325,0.44827506,0.12905835,0.35309556,0.810935,-52.650066,-54.90339,-10.752338,11.05531685,76.92714454,402.42938,0.0,,3.7900925,0.23,2,2
4.040,416837502175319,0.7099205,8.345418,4.4054856,0.31329724,-0.4253909,-0.3359756,1.0496715,8.162952,5.332428,-0.33975098,0.18246555,-0.92694235,31.125002,9.0,-31.95,0.4522088,0.12961969,0.3477625,0.8109577,-51.99603,-55.44662,-10.597374,11.05531685,76.92714454,402.42938,0.0,,3.7900925,0.25,2,2
4.060,416837522175319,0.7788638,8.401948,4.312315,0.23289217,-0.3736965,-0.33910626,1.0179243,8.188345,5.2995486,-0.23906055,0.21360302,-0.98723364,31.125002,8.55,-32.025,0.45590928,0.12971325,0.34257153,0.8110784,-51.369026,-55.937645,-10.489166,11.05531685,76.92714454,402.42938,0.0,,3.7900925,0.27,2,2
4.080,416837542175319,0.5850451,8.487043,4.321737,0.1430187,-0.26626065,-0.3550651,0.98177415,8.201523,5.285975,-0.39672902,0.28552008,-0.96423817,30.375002,8.85,-32.850002,0.45898712,0.12983292,0.33763045,0.8113997,-50.718643,-56.357975,-10.321303,11.05531685,76.92714454,402.42938,0.0,,3.7900925,0.29,2,2
4.100,416837562175319,0.3668496,8.534151,4.328168,0.03466657,-0.19837832,-0.3308596,0.95451695,8.199441,5.29419,-0.58766735,0.33471012,-0.96602225,30.675001,9.3,-33.0,0.4612114,0.13011049,0.3330801,0.8119832,-50.039066,-56.68528,-10.0620365,11.05531685,76.92714454,402.42938,0.0,,3.7900925,0.31,2,2
4.120,416837582175319,0.3234797,8.596964,4.5351467,-0.09300415,-0.19074251,-0.27046037,0.93944114,8.183692,5.3211856,-0.61596143,0.41327143,-0.7860391,29.1,9.525001,-30.900002,0.4624925,0.13028118,0.32904,0.8128848,-49.363922,-56.891922,-9.75628,11.05531685,76.92714454,402.42938,0.0,,3.7900925,0.33,2,2
4.140,416837602175319,0.4808078,8.653343,4.935047,-0.2009745,-0.1947895,-0.20387611,0.92483306,8.162854,5.3556423,-0.44402525,0.49048948,-0.42059517,29.325,9.450001,-30.750002,0.46286705,0.13008195,0.32556862,0.8141105,-48.73089,-56.966404,-9.459924,11.05531685,76.92714454,402.42938,0.0,,3.7900925,0.35,2,2
4.160,416837622175319,0.85902333,8.5016985,5.26406,-0.23006693,-0.11430806,-0.16119193,0.890053,8.147768,5.384429,-0.031029642,0.35393047,-0.12036872,28.800001,9.975,-29.85,0.46253797,0.12960355,0.32280096,0.8154836,-48.185307,-56.935463,-9.2015085,11.05531685,76.92714454,402.42938,0.0,,3.7900925,0.37,2,2
4.180,416837642175319,1.0998011,8.403444,5.1949673,-0.17776164,0.057803076,-0.18081596,0.82713866,8.139299,5.40722,0.27266246,0.26414442,-0.21225238,29.7,9.975,-31.050001,0.4617669,0.129323,0.32084092,0.8167456,-47.74219,-56.85362,-8.950009,11.05531685,76.92714454,402.42938,0.0,,3.7900925,0.39,2,2
4.200,416837662175319,0.97567344,8.493473,5.063512,-0.12950332,0.21456623,-0.247782,0.75251216,8.13229,5.428626,0.22316131,0.36118364,-0.36511445,29.025002,10.5,-30.375002,0.4606901,0.13005273,0.31937778,0.8178157,-47.29565,-56.781883,-8.5612545,11.05531685,76.92714454,402.42938,0.0,,3.7900925,0.41,2,2
4.220,416837682175319,0.66684973,8.7367935,5.080261,-0.124921836,0.2268599,-0.30367613,0.68389827,8.12487,5.448776,-0.017048508,0.6119237,-0.3685143,30.525002,10.8,-34.425003,0.45936385,0.13179258,0.31798524,0.81882596,-46.76745,-56.729954,-7.996414,11.05531685,76.92714454,402.42938,0.0,,3.7900925,0.43,2,2
4.240,416837702175319,0.52657056,8.805887,4.9088755,-0.13034326,0.15798488,-0.310472,0.6184419,8.11282,5.4744925,-0.09187132,0.6930671,-0.56561685,31.125002,11.400001,-33.375,0.45794016,0.13396311,0.3164313,0.819871,-46.169186,-56.687122,-7.338493,11.05531685,76.92714454,402.42938,0.0,,3.7900925,0.45,2,2
4.260,416837722175319,0.50488555,8.724082,4.66077,-0.17340922,0.12683079,-0.3137554,0.5425647,8.091925,5.513326,-0.03767912,0.6321573,-0.8525562,29.625002,11.475,-29.925001,0.45640886,0.13614996,0.31472698,0.82101816,-45.53312,-56.630424,-6.65331,11.05531685,76.92714454,402.42938,0.0,,3.7900925,0.47,2,2
4.280,416837742175319,0.44461638,8.567203,4.5361934,-0.25327978,0.1812741,-0.34208423,0.44596186,8.058852,5.5701356,-0.0013455003,0.5083504,-1.0339422,30.45,11.775001,-30.675001,0.45449314,0.13841127,0.3129777,0.8223674,-44.8523,-56.52847,-5.9159956,11.05531685,76.92714454,402.42938,0.0,,3.7900925,0.49,2,2
4.300,416837762175319,0.26874387,8.382805,4.5670013,-0.35850123,0.29443678,-0.39026618,0.32716563,8.012632,5.644562,-0.058421746,0.37017298,-1.0775607,29.925001,11.925,-30.075,0.45181987,0.14105299,0.3112953,0.8240219,-44.09758,-56.349915,-5.056665,11.05531685,76.92714454,402.42938,0.0,,3.7900925,0.51,2,2
4.320,416837782175319,-0.16510475,8.219496,4.863262,-0.4604393,0.4341721,-0.42042762,0.20499042,7.956771,5.7287135,-0.37009516,0.2627244,-0.8654511,30.075,12.6,-28.2,0.44806314,0.14442268,0.3098034,0.8260356,-43.248363,-56.06973,-4.0096,11.05531685,76.92714454,402.42938,0.0,,3.7900925,0.53,2,2
4.340,416837802175319,-0.56889355,8.096115,5.3642597,-0.5189296,0.49533492,-0.38751733,0.104923375,7.8988304,5.8110113,-0.673817,0.1972847,-0.4467516,30.900002,13.200001,-30.000002,0.44317675,0.1484675,0.3086411,0.82836676,-42.345165,-55.677006,-2.8054483,11.05531685,76.92714454,402.42938,0.0,,3.7900925,0.55,2,2
4.360,416837822175319,-0.6523433,7.973633,5.841628,-0.51007205,0.44448045,-0.2832885,0.040266916,7.848762,5.8792605,-0.6926102,0.12487078,-0.037632704,30.375002,13.875001,-27.6,0.4375715,0.15257332,0.30795062,0.830837,-41.504723,-55.19218,-1.6038201,11.05531685,76.92714454,402.42938,0.0,,3.7900925,0.57,2,2
4.380,416837842175319,-0.29596224,7.914261,6.0859947,-0.4264599,0.34895647,-0.14049889,4.593919E-4,7.8120027,5.928154,-0.29642165,0.102258205,0.15784097,30.300001,14.700001,-26.85,0.43193573,0.15606658,0.3078791,0.8331557,-40.856083,-54.670376,-0.58591557,11.05531685,76.92714454,402.42938,0.0,,3.7900925,0.59,2,2
4.400,416837862175319,0.40453658,7.9021473,5.925825,-0.31261003,0.27626356,-0.058261223,-0.03997913,7.7815742,5.967905,0.4445157,0.120573044,-0.042079687,31.275002,14.775001,-29.7,0.42704052,0.15854384,0.30847406,0.8349989,-40.478382,-54.190815,0.12791102,11.05531685,76.92714454,402.42938,0.0,,3.7900925,0.61,2,2
4.420,416837882175319,0.7328019,7.9341516,5.4083776,-0.26862776,0.23113593,-0.1071304,-0.09424022,7.7419577,6.0186043,0.82704216,0.19219375,-0.61022687,31.425001,15.375001,-29.025002,0.42308354,0.16037461,0.30922824,0.8363985,-40.248436,-53.79585,0.6417948,11.05531685,76.92714454,402.42938,0.0,,3.7900925,0.63,2,2
4.440,416837902175319,0.507727,7.9778204,5.018198,-0.35155264,0.22380556,-0.19524764,-0.15372686,7.6819987,6.093738,0.6614539,0.29582143,-1.0755403,32.4,15.375001,-30.000002,0.41947353,0.16198952,0.3097015,0.83774054,-40.01149,-53.432613,1.114525,11.05531685,76.92714454,402.42938,0.0,,3.7900925,0.65,2,2
4.460,416837922175319,0.10782657,7.9212894,4.8619165,-0.51808965,0.22724168,-0.2147953,-0.20624238,7.599701,6.194546,0.31406894,0.32158875,-1.3326297,31.35,15.450001,-26.250002,0.41546822,0.16346046,0.30993652,0.839366,-39.72747,-53.014194,1.606855,11.05531685,76.92714454,402.42938,0.0,,3.7900925,0.67,2,2
4.480,416837942175319,-0.123379916,7.827671,4.9061837,-0.69294965,0.2266308,-0.1632536,-0.2450664,7.4964504,6.3177176,0.12168649,0.3312204,-1.4115338,31.35,15.900001,-26.85,0.41060346,0.16460253,0.3102796,0.84140277,-39.45012,-52.477234,2.0880725,11.05531685,76.92714454,402.42938,0.0,,3.7900925,0.69,2,2
4.500,416837962175319,-0.1468595,7.7823563,5.083402,-0.8487965,0.18394664,-0.107283115,-0.27828664,7.373353,6.459615,0.13142714,0.4090035,-1.3762131,32.475002,15.900001,-28.800001,0.40474036,0.16512157,0.3109501,0.8438785,-39.23521,-51.794037,2.5001378,11.05531685,76.92714454,402.42938,0.0,,3.7900925,0.71,2,2
4.520,416837982175319,0.0526421,7.546514,5.3280683,-0.9824232,0.14912735,-0.105450526,-0.32771668,7.23612,6.6107154,0.3803588,0.3103938,-1.2826471,33.225002,16.5,-29.775002,0.39787242,0.16483377,0.31191447,0.84682083,-39.08994,-50.957718,2.8180914,11.05531685,76.92714454,402.42938,0.0,,3.7900925,0.73,2,2
4.540,416838002175319,0.035593238,7.27777,5.662465,-1.0596212,0.20593777,-0.1652389,-0.39735243,7.092799,6.7605247,0.43294567,0.18497086,-1.0980597,33.300003,17.550001,-30.300001,0.3899989,0.16410936,0.31301033,0.85018843,-38.962555,-49.985435,3.1119485,11.05531685,76.92714454,402.42938,0.0,,3.7900925,0.75,2,2
4.560,416838022175319,-0.25633112,7.062715,6.0329037,-1.0705404,0.27084213,-0.23678643,-0.47271085,6.950786,6.901703,0.21637973,0.11192894,-0.868799,33.975002,17.25,-29.550001,0.3813013,0.16349314,0.31402445,0.85384506,-38.79462,-48.92291,3.4662108,11.05531685,76.92714454,402.42938,0.0,,3.7900925,0.77,2,2
4.580,416838042175319,-0.6687939,6.9489064,6.382555,-1.029307,0.25465423,-0.28084505,-0.54147226,6.815199,7.0306664,-0.12732166,0.13370752,-0.6481111,32.850002,18.6,-26.775002,0.37199402,0.16337152,0.31462416,0.85772115,-38.523983,-47.811172,3.9435306,11.05531685,76.92714454,402.42938,0.0,,3.7900925,0.79,2,2
4.600,416838062175319,-1.0016954,6.8201427,6.7755766,-0.95424706,0.18264855,-0.29741478,-0.598149,6.6906185,7.1448054,-0.40354636,0.12952423,-0.36922908,34.2,19.2,-28.2,0.36243054,0.16344482,0.31473026,0.86173624,-38.17787,-46.67899,4.478017,11.05531685,76.92714454,402.42938,0.0,,3.7900925,0.81,2,2
4.620,416838082175319,-1.2215359,6.669096,7.1267233,-0.8541416,0.1094975,-0.28145593,-0.64197105,6.5842867,7.2391596,-0.57956487,0.084809065,-0.112436295,33.975002,20.400002,-26.775002,0.353113,0.16339378,0.31441453,0.86571497,-37.807335,-45.572536,4.988394,11.05531685,76.92714454,402.42938,0.0,,3.7900925,0.83,2,2
4.640,416838102175319,-1.3144073,6.5134125,7.473832,-0.71219194,0.06933314,-0.22999057,-0.66928446,6.501364,7.3112736,-0.64512295,0.012048483,0.16255832,31.35,21.150002,-21.375,0.34449354,0.16315657,0.31388202,0.86942583,-37.460316,-44.543213,5.4308662,11.05531685,76.92714454,402.42938,0.0,,3.7900925,0.85,2,2
4.660,416838122175319,-1.2581761,6.3664036,7.6130643,-0.54542583,0.014889827,-0.17020218,-0.6840057,6.443351,7.3610973,-0.5741704,-0.076946974,0.25196695,31.2,22.2,-20.85,0.33697546,0.16270424,0.3132808,0.8726879,-37.16662,-43.63747,5.777497,11.05531685,76.92714454,402.42938,0.0,,3.7900925,0.87,2,2
4.680,416838142175319,-1.0797613,6.2920766,7.519146,-0.37682718,-0.027794344,-0.13019055,-0.68970543,6.405768,7.3932967,-0.39005578,-0.11369133,0.12584949,32.4,21.900002,-23.325,0.33081302,0.162076,0.3126372,0.87541634,-36.926876,-42.885868,6.026546,11.05531685,76.92714454,402.42938,0.0,,3.7900925,0.89,2,2
4.700,416838162175319,-0.86844504,6.29447,7.263712,-0.24281873,-0.07368556,-0.12171479,-0.6851576,6.3745008,7.4206934,-0.18328747,-0.08003116,-0.15698123,33.0,22.125,-25.650002,0.3260334,0.1613053,0.3118904,0.8776436,-36.72337,-42.291393,6.190564,11.05531685,76.92714454,402.42938,0.0,,3.7900925,0.91,2,2
4.720,416838182175319,-0.7799107,6.3646092,6.9726853,-0.20448697,-0.15844303,-0.14362957,-0.6731219,6.334543,7.4559274,-0.106788725,0.030066013,-0.48324203,32.550003,22.650002,-24.375002,0.32277867,0.1603247,0.31086558,0.8794136,-36.531055,-41.866,6.267945,11.05531685,76.92714454,402.42938,0.0,,3.7900925,0.93,2,2
4.740,416838202175319,-0.6252745,6.310322,6.860073,-0.26167917,-0.22815797,-0.17318015,-0.6582434,6.279386,7.50376,0.03296894,0.030935764,-0.643687,31.875002,22.95,-22.800001,0.3204508,0.15880707,0.30954072,0.88102305,-36.34342,-41.52629,6.245353,11.05531685,76.92714454,402.42938,0.0,,3.7900925,0.95,2,2
4.760,416838222175319,-0.3662514,6.1396837,6.880412,-0.35811943,-0.26083922,-0.20135629,-0.63636047,6.2049537,7.567296,0.27010906,-0.06526995,-0.68688416,31.875002,23.1,-23.925001,0.31825936,0.15655525,0.30801174,0.88276166,-36.162983,-41.173088,6.1276655,11.05531685,76.92714454,402.42938,0.0,,3.7900925,0.97,2,2
4.780,416838242175319,0.2286641,5.722884,6.5325556,-0.4841103,-0.28733552,-0.20303616,-0.6338181,6.103235,7.6497836,0.8624822,-0.3803506,-1.1172283,30.825,23.175001,-21.300001,0.315665,0.15357305,0.30639017,0.88477755,-35.992443,-40.744965,5.933978,11.05531685,76.92714454,402.42938,0.0,,3.7900925,0.99,2,2
4.800,416838262175319,0.52028936,5.2535915,6.2998533,-0.6508,-0.20402882,-0.2735147,-0.6781313,5.9770584,7.745017,1.1984206,-0.7234669,-1.4451635,30.375002,23.625,-20.925001,0.3120748,0.1502207,0.3046997,0.8871983,-35.80458,-40.187336,5.7377806,11.05532015,76.92714247,402.6842,0.0,,3.7900925,0.01,2,2
4.820,416838282175319,-0.37806597,5.5613685,6.980462,-0.78664106,-0.036193732,-0.42226022,-0.7325367,5.843206,7.841602,0.3544707,-0.28183746,-0.86114,31.725,23.775002,-23.775002,0.30689293,0.14737315,0.30268344,0.8901525,-35.510914,-39.462856,5.6933684,11.05532015,76.92714247,402.6842,0.0,,3.7900925,0.03,2,2
4.840,416838302175319,-1.4394324,5.992226,7.6188965,-0.822453,-0.014889827,-0.44952008,-0.76883864,5.715264,7.9318995,-0.67059374,0.27696228,-0.31300282,30.375002,24.900002,-21.825,0.30033958,0.14551115,0.300172,0.8935175,-35.07867,-38.61426,5.85667,11.05532015,76.92714247,402.6842,0.0,,3.7900925,0.05,2,2
4.860,416838322175319,-1.5930216,5.7143593,7.7258263,-0.77847075,-0.054137886,-0.35185808,-0.78252023,5.591656,8.018194,-0.81050146,0.122703314,-0.29236794,31.2,25.425001,-22.275002,0.29321882,0.14402762,0.29761142,0.8969562,-34.623825,-37.715237,6.084418,11.05532015,76.92714247,402.6842,0.0,,3.7900925,0.07,2,2
4.880,416838342175319,-1.420888,5.5440207,7.6063347,-0.7564796,-0.09185878,-0.22113302,-0.7873585,5.4626184,8.106187,-0.6335295,0.0814023,-0.49985242,30.225,25.725,-19.800001,0.28603193,0.1424912,0.2954363,0.9002276,-34.238045,-36.81132,6.2777653,11.05532015,76.92714247,402.6842,0.0,,3.7900925,0.09,2,2
4.900,416838362175319,-0.96176517,5.3835516,7.4950686,-0.8001564,-0.018249582,-0.060093816,-0.81058806,5.323533,8.195933,-0.15117708,0.060018778,-0.70086503,30.6,26.625002,-19.800001,0.27890262,0.14075041,0.2942086,0.9031355,-34.006176,-35.915653,6.3893757,11.05532015,76.92714247,402.6842,0.0,,3.7900925,0.11,2,2
4.920,416838382175319,-0.49292147,5.3428736,7.7651577,-0.8609375,0.16516255,0.021762054,-0.8506517,5.177653,8.284847,0.3577302,0.16522098,-0.5196893,31.95,26.85,-21.75,0.27151445,0.13889767,0.29431129,0.90563595,-33.967766,-34.997787,6.431978,11.05532015,76.92714247,402.6842,0.0,,3.7900925,0.13,2,2
4.940,416838402175319,-0.0532403,5.4874897,8.209176,-0.8900299,0.2496146,-0.027412554,-0.89159834,5.0312,8.370333,0.83835804,0.45629,-0.16115665,31.275002,27.300001,-21.825,0.26363856,0.13736516,0.29523033,0.90788996,-34.027557,-34.043232,6.4971895,11.05532015,76.92714247,402.6842,0.0,,3.7900925,0.15,2,2
4.960,416838422175319,0.22432712,5.521737,8.736195,-0.8638391,0.15309797,-0.20799944,-0.91787606,4.891998,8.44963,1.1422032,0.6297395,0.2865653,31.35,27.45,-20.85,0.25550008,0.1359674,0.29590833,0.9101984,-34.04927,-33.06426,6.599043,11.05532015,76.92714247,402.6842,0.0,,3.7900925,0.17,2,2
4.980,416838442175319,0.35877383,5.4056854,8.925676,-0.78793913,-0.053832456,-0.42294747,-0.92539084,4.764454,8.521386,1.2841647,0.64123154,0.40429068,30.075,28.125002,-16.575,0.24758351,0.1341813,0.2953326,0.91283196,-33.92049,-32.09066,6.692593,11.05532015,76.92714247,402.6842,0.0,,3.7900925,0.19,2,2
5.000,416838462175319,0.51176494,5.27752,8.776424,-0.69753116,-0.24274237,-0.58055055,-0.9278933,4.6395364,8.5897665,1.4396582,0.63798356,0.18665838,30.825,28.875002,-18.75,0.2403206,0.1316876,0.29309127,0.9158521,-33.60301,-31.157288,6.734008,11.05532015,76.92714247,402.6842,0.0,,3.7900925,0.21,2,2
5.020,416838482175319,0.485743,5.178517,8.455487,-0.6674461,-0.3354411,-0.7118101,-0.93440604,4.500007,8.662978,1.4201491,0.6785097,-0.20749092,29.025002,29.775002,-16.050001,0.23372824,0.12852721,0.28921172,0.9192285,-33.100437,-30.267813,6.7224565,11.05532015,76.92714247,402.6842,0.0,,3.7900925,0.23,2,2
5.040,416838502175319,0.19606191,5.104788,8.854042,-0.7304415,-0.3702604,-0.8334485,-0.934355,4.3484483,8.740044,1.1304169,0.75633955,0.11399841,28.575,30.825,-16.050001,0.2273023,0.12490438,0.2838682,0.92298156,-32.425674,-29.373745,6.690355,11.05532015,76.92714247,402.6842,0.0,,3.7900925,0.25,2,2
5.060,416838522175319,0.051445685,4.765007,9.387043,-0.7779362,-0.4202749,-0.8850666,-0.93987554,4.210861,8.806569,0.9913212,0.55414605,0.5804744,28.650002,31.425001,-17.175001,0.22065336,0.12076633,0.277382,0.92708343,-31.621532,-28.432621,6.6290092,11.05532015,76.92714247,402.6842,0.0,,3.7900925,0.27,2,2
5.080,416838542175319,0.3275176,4.200301,9.280413,-0.6860775,-0.35697407,-0.87147486,-0.95841247,4.1001387,8.856675,1.28593,0.100162506,0.423738,28.650002,31.95,-19.575,0.21400079,0.116537966,0.27024055,0.931263,-30.74459,-27.488373,6.563304,11.05532015,76.92714247,402.6842,0.0,,3.7900925,0.29,2,2
5.100,416838562175319,0.29012972,4.1917768,8.819345,-0.53847724,-0.26083922,-0.85131633,-0.9735373,4.009658,8.896361,1.2636671,0.1821189,-0.0770154,27.900002,33.0,-17.625,0.20786794,0.11281296,0.26281565,0.93522185,-29.83249,-26.622059,6.5355954,11.05532015,76.92714247,402.6842,0.0,,3.7900925,0.31,2,2
5.120,416838582175319,-0.28773692,4.714309,8.033604,-0.44638938,-0.2690859,-0.81435907,-0.984534,3.9270961,8.931909,0.69679713,0.7872131,-0.8983054,26.400002,33.0,-15.675,0.2026637,0.10965067,0.25529075,0.93882555,-28.909742,-25.881884,6.5362434,11.05532015,76.92714247,402.6842,0.0,,3.7900925,0.33,2,2
5.140,416838602175319,-1.109522,5.341827,7.5249786,-0.42554364,-0.2845866,-0.76587164,-0.98041785,3.8394198,8.970397,-0.12910414,1.5024071,-1.4454186,25.800001,33.75,-15.075001,0.19822025,0.10698321,0.24780291,0.942096,-27.99273,-25.246056,6.5606513,11.05532015,76.92714247,402.6842,0.0,,3.7900925,0.35,2,2
5.160,416838622175319,-1.7464614,5.627321,7.529764,-0.46784604,-0.34811652,-0.6974548,-0.94320935,3.7467842,9.0134535,-0.8032521,1.8805366,-1.4836893,27.300001,34.275,-18.6,0.19410741,0.10442092,0.24054173,0.94513005,-27.1113,-24.654701,6.571129,11.05532015,76.92714247,402.6842,0.0,,3.7900925,0.37,2,2
5.180,416838642175319,-1.8272192,5.3168516,7.6063347,-0.49953464,-0.48632467,-0.60193086,-0.85911715,3.659269,9.057707,-0.96810204,1.6575828,-1.4513721,26.400002,35.100002,-19.35,0.19015884,0.101310745,0.2336746,0.94800025,-26.30017,-24.072277,6.4911323,11.05532015,76.92714247,402.6842,0.0,,3.7900925,0.39,2,2
5.200,416838662175319,-1.3971093,4.867151,7.5828547,-0.47960517,-0.6695841,-0.4591412,-0.7264124,3.585467,9.098743,-0.6706969,1.2816837,-1.5158887,24.45,35.775,-15.750001,0.18657346,0.097049,0.22743477,0.95068055,-25.601397,-23.50869,6.2393374,11.05532015,76.92714247,402.6842,0.0,,3.7900925,0.41,2,2
5.220,416838682175319,-0.7363911,4.850102,7.7757764,-0.42394012,-0.84123707,-0.27466005,-0.5087034,3.5259955,9.136682,-0.22768773,1.3241065,-1.3609052,24.075,35.850002,-15.525001,0.18367985,0.09121343,0.22213337,0.95307726,-25.061365,-22.994656,5.75244,11.05532015,76.92714247,402.6842,0.0,,3.7900925,0.43,2,2
5.240,416838702175319,0.31839496,4.673482,8.032407,-0.35025457,-1.2463168,-0.1949422,-0.28679597,3.4821453,9.163121,0.60519093,1.1913364,-1.1307147,25.275002,36.45,-18.0,0.18181643,0.08282361,0.21757984,0.95523435,-24.675852,-22.544205,4.9140105,11.05532015,76.92714247,402.6842,0.0,,3.7900925,0.45,2,2
5.260,416838722175319,0.81625164,4.442425,7.118498,-0.266337,-1.3164134,-0.35002548,-0.12844452,3.434107,9.1848135,0.9446962,1.0083177,-2.0663157,24.300001,36.225002,-18.6,0.18102628,0.072340086,0.21279979,0.957277,-24.31095,-22.171024,3.8051095,11.05532015,76.92714247,402.6842,0.0,,3.7900925,0.47,2,2
5.280,416838742175319,0.7559824,4.0185957,6.889535,-0.28313577,-1.0626755,-0.5939132,-0.030501628,3.3800416,9.205692,0.786484,0.63855433,-2.3161576,23.475,36.525,-19.125,0.1805925,0.061767336,0.20705004,0.959332,-23.827211,-21.843596,2.700276,11.05532015,76.92714247,402.6842,0.0,,3.7900925,0.49,2,2
5.300,416838762175319,0.38135612,3.566801,6.573383,-0.31505346,-0.8075632,-0.77327836,0.023040231,3.3188927,9.227937,0.35831589,0.24790847,-2.654554,21.75,36.975002,-18.0,0.179948,0.052392464,0.20010148,0.9614742,-23.166513,-21.530615,1.7700661,11.05532015,76.92714247,402.6842,0.0,,3.7900925,0.51,2,2
5.320,416838782175319,-0.06520441,3.2313573,6.700053,-0.35094178,-0.6097957,-0.87315476,0.07858163,3.231478,9.258605,-0.14378604,-1.206398E-4,-2.558552,21.900002,37.725002,-19.125,0.1788506,0.044831388,0.19213325,0.96368873,-22.337835,-21.219374,1.0868058,11.05532015,76.92714247,402.6842,0.0,,3.7900925,0.53,2,2
5.340,416838802175319,-0.6363413,3.1054351,6.918398,-0.49380776,-0.6353757,-0.89224434,0.14962006,3.1033304,9.30147,-0.78596133,0.0021047592,-2.383072,20.325,38.025,-17.25,0.1768418,0.0385407,0.18340561,0.96603256,-21.382933,-20.84291,0.5883112,11.05532015,76.92714247,402.6842,0.0,,3.7900925,0.55,2,2
5.360,416838822175319,-1.1364412,2.8793135,7.3407316,-0.7096721,-0.6811142,-0.77450013,0.23607047,2.9417915,9.352034,-1.3725116,-0.062478065,-2.0113022,18.6,39.375,-16.2,0.17332159,0.032327794,0.17462341,0.96851826,-20.409943,-20.305191,0.1275705,11.05532015,76.92714247,402.6842,0.0,,3.7900925,0.57,2,2
5.380,416838842175319,-1.0619646,2.2766213,8.023732,-0.8700241,-0.6685151,-0.5281689,0.31464368,2.7845712,9.397742,-1.3766084,-0.50794995,-1.3740098,19.35,39.075,-17.475,0.16816635,0.025791313,0.16678098,0.9709984,-19.547253,-19.583578,-0.36533472,11.05532015,76.92714247,402.6842,0.0,,3.7900925,0.59,2,2
5.400,416838862175319,-0.7060323,1.6434205,8.502596,-0.8242092,-0.52717626,-0.26847506,0.3928821,2.654653,9.432329,-1.0989144,-1.0112326,-0.9297328,20.25,39.525,-18.975,0.16201785,0.019360645,0.16066088,0.9732313,-18.883955,-18.758667,-0.8698895,11.05532015,76.92714247,402.6842,0.0,,3.7900925,0.61,2,2
5.420,416838882175319,-0.22088745,1.3790135,8.665158,-0.667446,-0.46288276,-0.113009974,0.49559158,2.536045,9.460087,-0.716479,-1.1570315,-0.79492855,19.125,39.525,-18.225,0.15586786,0.013387537,0.1563472,0.9750596,-18.428198,-17.947603,-1.3631823,11.05532015,76.92714247,402.6842,0.0,,3.7900925,0.63,2,2
5.440,416838902175319,0.17961125,1.2644572,8.485397,-0.6074286,-0.5799397,-0.11049016,0.6055867,2.4138677,9.485616,-0.42597544,-1.1494105,-1.0002179,17.25,39.9,-14.325001,0.15014616,0.0073283324,0.15313266,0.97655207,-18.105642,-17.18725,-1.8998457,11.05532015,76.92714247,402.6842,0.0,,3.7900925,0.65,2,2
5.460,416838922175319,0.2819044,1.010818,8.582457,-0.6262127,-0.63621557,-0.190208,0.6966586,2.2921333,9.509531,-0.4147542,-1.2813153,-0.92707443,18.075,40.2,-16.875,0.14467655,9.17812E-4,0.15018962,0.97787315,-17.818626,-16.452856,-2.4898365,11.05532015,76.92714247,402.6842,0.0,,3.7900925,0.67,2,2
5.480,416838942175319,0.20324036,0.55513483,9.028269,-0.6155989,-0.54687667,-0.22823432,0.78416806,2.1823866,9.528519,-0.58092767,-1.6272517,-0.5002494,16.35,40.425003,-15.000001,0.13904555,-0.0053926837,0.14720866,0.9791346,-17.518852,-15.70598,-3.066539,11.05532015,76.92714247,402.6842,0.0,,3.7900925,0.69,2,2
5.500,416838962175319,0.14536399,0.1434198,9.693474,-0.53565204,-0.5105302,-0.14973822,0.90025055,2.0953069,9.5378,-0.75488657,-1.951887,0.15567446,17.925001,40.875,-16.875,0.13348202,-0.011354462,0.14447089,0.9802734,-17.238194,-14.976152,-3.6102407,11.05532015,76.92714247,402.6842,0.0,,3.7900925,0.71,2,2
5.520,416838982175319,0.19770697,-0.14730814,10.047013,-0.39744386,-0.62705266,-0.0025961753,1.07649,2.0204957,9.535678,-0.8787831,-2.1678038,0.5113354,15.825001,41.100002,-13.950001,0.12854366,-0.017469592,0.14242503,0.9811527,-17.042347,-14.315769,-4.1960235,11.05532015,76.92714247,402.6842,0.0,,3.7900925,0.73,2,2
5.540,416839002175319,0.59446687,-0.2653042,9.972986,-0.3171915,-0.9045379,0.14217876,1.2789528,1.9259021,9.530246,-0.684486,-2.1912065,0.44273996,16.275002,40.875,-14.775001,0.1245247,-0.024780663,0.14128666,0.98168015,-16.97321,-13.738121,-4.951393,11.05532015,76.92714247,402.6842,0.0,,3.7900925,0.75,2,2
5.560,416839022175319,1.0446167,-0.74955165,9.567253,-0.3988183,-1.016937,0.2326631,1.4261056,1.796803,9.5345745,-0.38148898,-2.5463548,0.032678127,17.85,41.175003,-17.475,0.12090408,-0.033633903,0.14100836,0.98189706,-17.023062,-13.176139,-5.9036345,11.05532015,76.92714247,402.6842,0.0,,3.7900925,0.77,2,2
5.580,416839042175319,1.5566807,-1.7401803,9.2714405,-0.5447386,-0.7056251,0.2997055,1.5387534,1.6293305,9.547142,0.017927289,-3.3695107,-0.275702,18.75,41.25,-18.300001,0.11675755,-0.042529862,0.14160103,0.98195875,-17.162193,-12.548012,-6.860082,11.05532015,76.92714247,402.6842,0.0,,3.7900925,0.79,2,2
5.600,416839062175319,1.9275682,-2.0431714,9.2336035,-0.7241801,-0.5069414,0.38232496,1.6928929,1.4124552,9.555599,0.23467535,-3.4556265,-0.32199574,16.800001,41.025,-14.400001,0.111405246,-0.05049324,0.14310683,0.9819808,-17.374329,-11.791086,-7.693777,11.05532015,76.92714247,402.6842,0.0,,3.7900925,0.81,2,2
5.620,416839082175319,2.2238295,-1.5976577,8.589186,-0.98036146,-0.71089387,0.46937317,1.913252,1.1369497,9.55077,0.3105775,-2.7346075,-0.9615836,17.925001,41.550003,-15.975,0.1044093,-0.05869669,0.14538467,0.9819373,-17.649023,-10.834898,-8.52707,11.05532015,76.92714247,402.6842,0.0,,3.7900925,0.83,2,2
5.640,416839102175319,2.5435705,-1.3459628,7.841878,-1.2848775,-1.0575595,0.50823945,2.2205722,0.81309164,9.517265,0.3229983,-2.1590543,-1.6753874,18.525002,42.15,-16.800001,0.0955244,-0.06861391,0.14917599,0.9816874,-18.081146,-9.618035,-9.528757,11.05532015,76.92714247,402.6842,0.0,,3.7900925,0.85,2,2
5.660,416839122175319,2.9620154,-1.3076775,7.368398,-1.5406008,-1.527391,0.4836521,2.6445713,0.46052745,9.432102,0.3174441,-1.768205,-2.063704,17.025002,42.225002,-12.750001,0.084719814,-0.08162691,0.1532486,0.9811269,-18.525646,-8.118643,-10.8374815,11.05532015,76.92714247,402.6842,0.0,,3.7900925,0.87,2,2
5.680,416839142175319,3.017499,-1.3576277,6.611369,-1.7087413,-2.1771219,0.40889758,3.2699997,0.047831293,9.245279,-0.2525009,-1.405459,-2.6339104,16.35,42.75,-12.075001,0.07244765,-0.09916513,0.15610623,0.9800654,-18.80518,-6.375633,-12.6119175,11.05532015,76.92714247,402.6842,0.0,,3.7900925,0.89,2,2
5.700,416839162175319,2.889184,-1.6836498,6.800701,-2.0179915,-3.3192863,0.44623667,4.213054,-0.48845837,8.842056,-1.3238703,-1.1951915,-2.0413551,15.750001,42.45,-12.3,0.05887472,-0.12363829,0.15788339,0.97791296,-18.922655,-4.3648787,-15.139092,11.05532015,76.92714247,402.6842,0.0,,3.7900925,0.91,2,2
5.720,416839182175319,2.5066314,-1.7213368,6.228368,-2.5842633,-5.2346525,0.8025999,4.458606,-1.1401793,8.659746,-1.9519745,-0.58115757,-2.4313784,17.625,42.525,-13.425,0.043446794,-0.15977922,0.15949842,0.9732118,-18.936407,-1.9253172,-18.968058,11.05532015,76.92714247,402.6842,0.0,,3.7900925,0.93,2,2
5.740,416839202175319,18.817905,-13.153048,18.404394,-2.724762,-1.3306924,1.4075086,2.1059916,-1.3120964,9.48755,16.711914,-11.840951,8.916845,17.325,42.975002,-13.725,0.023865465,-0.19531171,0.16286024,0.96682966,-18.922451,1.000971,-22.674698,11.05532015,76.92714247,402.6842,0.0,,3.7900925,0.95,2,2
5.760,416839222175319,3.599553,-10.217352,39.07524,-0.61399543,12.630545,0.42897975,1.2809194,-1.6463943,9.582224,2.3186336,-8.570958,29.49302,20.025002,42.9,-5.4,1.793151E-4,-0.17102633,0.16565843,0.97123986,-18.80577,3.2283537,-19.43898,11.05532015,76.92714247,402.6842,0.0,,3.7900925,0.97,2,2
5.780,416839242175319,-2.2674985,-2.967698,16.974533,-1.7911317,4.250244,-0.33315033,1.2033423,-1.820398,9.56078,-3.470841,-1.1473002,7.4137545,20.400002,43.575,-1.6500001,-0.02439685,-0.13149288,0.16432236,0.9772987,-18.425817,5.215412,-14.479458,11.05532015,76.92714247,402.6842,0.0,,3.7900925,0.99,2,2
5.800,416839262175319,-1.835295,-1.1989536,8.429465,-0.9321796,0.3529271,-0.11950041,1.2087178,-1.7267486,9.577459,-3.0440128,0.5277949,-1.147994,20.475,43.65,-1.0500001,-0.043982908,-0.106280595,0.1619993,0.98006445,-18.086847,6.929441,-11.27401,11.05531222,76.92714728,402.8211,0.0,,3.7900925,0.01,2,2
5.820,416839282175319,-0.75029945,-1.8587744,8.254191,0.5281689,-0.11728603,0.2344957,1.4111539,-1.4154927,9.600802,-2.1614532,-0.44328183,-1.346611,20.925001,43.275,-0.975,-0.0541325,-0.09162952,0.16144718,0.98104465,-18.042696,7.804851,-9.428949,11.05531222,76.92714728,402.8211,0.0,,3.7900925,0.03,2,2
5.840,416839302175319,0.28025934,-2.8202405,11.36187,1.6955314,-1.1454477,0.33971715,1.7889867,-0.87758714,9.60207,-1.5087273,-1.9426534,1.7598,22.425001,43.65,-3.825,-0.053331845,-0.08587994,0.16327678,0.98130924,-18.304726,7.626479,-8.770856,11.05531222,76.92714728,402.8211,0.0,,3.7900925,0.05,2,2
5.860,416839322175319,2.1152554,-3.316153,11.159377,2.8902302,-1.9921062,0.22724168,1.6125578,-0.48927137,9.660779,0.5026975,-2.8268816,1.4985981,20.550001,42.75,-4.425,-0.040552825,-0.08868034,0.16680709,0.9810994,-18.786505,6.266764,-9.290751,11.05531222,76.92714728,402.8211,0.0,,3.7900925,0.07,2,2
5.880,416839342175319,3.970291,0.5331508,-0.935145,1.9857684,1.0235802,-0.11293361,0.7717243,-0.5463086,9.760962,3.1985667,1.0794594,-10.696107,21.6,42.75,-9.225,-0.023096373,-0.088479,0.16967317,0.9812309,-19.258358,4.3213773,-9.571123,11.05531222,76.92714728,402.8211,0.0,,3.7900925,0.09,2,2
5.900,416839362175319,0.7135098,0.47602215,9.960125,-0.3414734,4.33042,-0.18432844,0.17976768,-0.4445269,9.794921,0.53374213,0.92054904,0.16520357,21.900002,42.9,-10.200001,-0.01584499,-0.07157462,0.17038673,0.982641,-19.457283,3.1833067,-7.786019,11.05531222,76.92714728,402.8211,0.0,,3.7900925,0.11,2,2
5.920,416839382175319,-2.1853948,-1.1584253,18.360725,0.5195404,2.9644501,-0.1255327,0.20766813,-0.20232284,9.802363,-2.393063,-0.95610243,8.558363,21.300001,42.825,-5.625,-0.013481367,-0.04667024,0.16993336,0.9842557,-19.484838,2.430063,-5.0121846,11.05531222,76.92714728,402.8211,0.0,,3.7900925,0.13,2,2
5.940,416839402175319,-0.9906286,0.36071804,8.795866,1.2208896,-0.17119482,0.020616684,0.36702114,-0.28203952,9.79572,-1.3576497,0.64275753,-0.9998536,21.675001,42.300003,-6.15,-0.0072782133,-0.029536352,0.1696283,0.98494565,-19.500916,1.3957309,-3.1947932,11.05531222,76.92714728,402.8211,0.0,,3.7900925,0.15,2,2
5.960,416839422175319,1.3334005,0.69690955,7.792975,-0.42844522,-0.7870228,0.032223113,0.41368225,-0.3878528,9.790241,0.91971815,1.0847623,-1.9972663,21.6,42.45,-6.7500005,-0.0032062698,-0.023658238,0.16954646,0.98514587,-19.50821,0.82162833,-2.609642,11.05531222,76.92714728,402.8211,0.0,,3.7900925,0.17,2,2
5.980,416839442175319,0.3094219,-1.3353446,11.505888,-0.51640975,-0.2434296,0.02924515,0.40692753,-0.32952893,9.792661,-0.097505644,-1.0058156,1.7132268,22.275002,43.2,-8.400001,-0.0036685811,-0.022302605,0.16959633,0.9852039,-19.514704,0.847635,-2.447592,11.05531222,76.92714728,402.8211,0.0,,3.7900925,0.19,2,2
6.000,416839462175319,0.8413763,-0.3080759,7.9438725,0.29779655,0.04772381,-0.01641699,0.30815154,-0.2911529,9.797483,0.5332247,-0.016923018,-1.8536112,20.775002,42.75,-4.65,-0.0033851934,-0.02186561,0.16961299,0.9852335,-19.518003,0.80719787,-2.4037635,11.05531222,76.92714728,402.8211,0.0,,3.7900925,0.21,2,2
6.020,416839482175319,-0.030209377,0.14760725,10.969297,0.18303034,0.4948768,-0.022296563,0.3335539,-0.30636176,9.796186,-0.36376327,0.453969,1.173111,21.075,42.525,-5.55,-0.0022705677,-0.019471267,0.16953237,0.9853086,-19.512728,0.63464624,-2.1549928,11.05531222,76.92714728,402.8211,0.0,,3.7900925,0.23,2,2
6.040,416839502175319,0.08015956,-0.29192436,10.537542,-0.078267045,-0.13637555,0.0054977825,0.36395082,-0.316528,9.794781,-0.28379124,0.024603628,0.7427616,21.525002,42.600002,-6.0750003,-0.0020052253,-0.017867932,0.169485,0.985355,-19.508785,0.57344925,-1.9790764,11.05531222,76.92714728,402.8211,0.0,,3.7900925,0.25,2,2
6.060,416839522175319,0.6716354,-0.38823548,8.717352,-0.048945535,-0.14660753,0.006872228,0.3310333,-0.30474055,9.796323,0.3406021,-0.08349493,-1.0789709,21.150002,42.9,-6.0750003,-0.002032075,-0.018007101,0.16948842,0.9853554,-19.509119,0.5791912,-1.9942809,11.05531222,76.92714728,402.8211,0.0,,3.7900925,0.27,2,2
6.080,416839542175319,0.16674984,-0.25872394,10.430762,0.058261223,0.16332996,-0.0046578436,0.33598632,-0.30326843,9.796199,-0.16923648,0.04454448,0.63456345,22.725,42.675003,-9.225,-0.0023586217,-0.017580533,0.16948915,0.9853665,-19.508942,0.60778403,-1.9397709,11.05531222,76.92714728,402.8211,0.0,,3.7900925,0.29,2,2
6.100,416839562175319,0.30717862,-0.15882361,9.827322,0.003970621,-0.02596175,5.3450663E-4,0.3427294,-0.30848253,9.795803,-0.035550788,0.14965892,0.031519413,23.1,41.925003,-9.225,-0.0025060514,-0.017330194,0.16949087,0.9853717,-19.509056,0.6195745,-1.9086354,11.05531222,76.92714728,402.8211,0.0,,3.7900925,0.31,2,2
6.120,416839582175319,0.401396,-0.34067813,10.04836,-0.025885392,-0.03313941,0.0017562361,0.33195165,-0.30329126,9.796336,0.06944436,-0.037386864,0.2520237,21.825,42.225002,-6.675,-0.0027551947,-0.017281275,0.169496,0.98537207,-19.509274,0.6467684,-1.8982754,11.05531222,76.92714728,402.8211,0.0,,3.7900925,0.33,2,2
6.140,416839602175319,0.2798107,-0.21714866,9.631859,0.024434589,0.053756095,-1.5271618E-4,0.33659914,-0.30572197,9.796103,-0.056788452,0.088573314,-0.1642437,21.675001,42.300003,-5.925,-0.0030986753,-0.01727894,0.16950345,0.9853706,-19.509573,0.68552405,-1.8913451,11.05531222,76.92714728,402.8211,0.0,,3.7900925,0.35,2,2
6.160,416839622175319,0.27816564,-0.29671,9.764063,-0.012522727,-0.025121812,9.162971E-4,0.33799466,-0.3048871,9.796081,-0.05982904,0.008177087,-0.032018185,21.225,42.600002,-5.775,-0.0031197607,-0.017276224,0.16950396,0.9853705,-19.509598,0.68785334,-1.8906293,11.05531222,76.92714728,402.8211,0.0,,3.7900925,0.37,2,2
6.180,416839642175319,0.389731,-0.24376881,10.1005535,0.002443459,-0.006108647,-1.5271618E-4,0.33500627,-0.3041064,9.796207,0.054724723,0.06033761,0.3043456,22.125,42.75,-7.5750003,-0.003168081,-0.017281886,0.1695049,0.9853701,-19.509624,0.6934215,-1.890331,11.05531222,76.92714728,402.8211,0.0,,3.7900925,0.39,2,2
6.200,416839662175319,0.3047858,-0.25663024,9.879815,0.0027488912,0.014355321,9.162971E-4,0.3362611,-0.3052825,9.796127,-0.031475306,0.048652276,0.08368778,22.425001,42.525,-8.325001,-0.0031973664,-0.017283084,0.16950549,0.98536986,-19.509642,0.6967529,-1.8898976,11.05531222,76.92714728,402.8211,0.0,,3.7900925,0.41,2,2
6.220,416839682175319,0.31450662,-0.28175485,9.656236,-0.0064904373,-0.0068722283,9.162971E-4,0.3358715,-0.30416447,9.796176,-0.021364868,0.022409603,-0.13994026,23.175001,42.675003,-11.1,-0.0032343408,-0.017286848,0.1695063,0.9853695,-19.50967,0.7010028,-1.8896049,11.05531222,76.92714728,402.8211,0.0,,3.7900925,0.43,2,2
6.240,416839702175319,0.31615168,-0.2600699,9.88146,0.004505127,0.0014508038,-1.5271618E-4,0.3370809,-0.3043944,9.796127,-0.020929202,0.04432448,0.08533287,22.275002,42.600002,-8.55,-0.0032344332,-0.017286858,0.1695063,0.9853695,-19.50967,0.7010134,-1.8896043,11.05531222,76.92714728,402.8211,0.0,,3.7900925,0.45,2,2
6.260,416839722175319,0.3539882,-0.24197419,9.989885,-0.0028252492,-0.0058795726,8.39939E-4,0.33574858,-0.30418321,9.796179,0.018239617,0.062209025,0.19370604,21.75,42.75,-7.2000003,-0.003235001,-0.017286992,0.1695063,0.9853695,-19.509668,0.7010801,-1.8896084,11.05531222,76.92714728,402.8211,0.0,,3.7900925,0.47,2,2
6.280,416839742175319,0.3133102,-0.26769704,9.90494,7.635809E-5,0.006108647,9.926552E-4,0.334873,-0.30399075,9.796215,-0.02156277,0.036293715,0.108724594,20.925001,42.375,-5.25,-0.0032356533,-0.017287098,0.1695063,0.9853695,-19.509666,0.70115584,-1.8896079,11.05531222,76.92714728,402.8211,0.0,,3.7900925,0.49,2,2
6.300,416839762175319,0.30523443,-0.26739794,9.693325,1.5271618E-4,0.0038179043,-1.5271618E-4,0.33618417,-0.30396384,9.796171,-0.030949742,0.0365659,-0.10284662,20.550001,42.825,-4.875,-0.003235784,-0.017287113,0.1695063,0.9853695,-19.509666,0.70117086,-1.8896071,11.05531222,76.92714728,402.8211,0.0,,3.7900925,0.51,2,2
6.320,416839782175319,0.33200413,-0.26665017,9.897312,-8.39939E-4,-0.0068722283,7.635809E-4,0.33545268,-0.3035344,9.79621,-0.003448531,0.03688422,0.10110235,20.550001,42.75,-4.425,-0.003235923,-0.017287135,0.1695063,0.9853695,-19.509666,0.701187,-1.8896068,11.05531222,76.92714728,402.8211,0.0,,3.7900925,0.53,2,2
6.340,416839802175319,0.32497522,-0.25004995,9.982706,6.872228E-4,0.003283398,0.0010690133,0.33503082,-0.30376935,9.796217,-0.010055602,0.053719386,0.1864891,20.775002,42.300003,-4.7250004,-0.0032360551,-0.017287156,0.1695063,0.9853695,-19.509666,0.7012023,-1.8896066,11.05531222,76.92714728,402.8211,0.0,,3.7900925,0.55,2,2
6.360,416839822175319,0.3234797,-0.27008986,9.837492,-0.0020616683,0.0018325942,0.0010690133,0.33440176,-0.30347064,9.7962475,-0.0109220445,0.03338079,0.041244507,20.775002,42.45,-5.175,-0.0032362,-0.017287178,0.1695063,0.9853695,-19.509666,0.7012191,-1.8896064,11.05531222,76.92714728,402.8211,0.0,,3.7900925,0.57,2,2
6.380,416839842175319,0.3074777,-0.2727818,9.767801,7.635809E-4,0.002519817,1.5271618E-4,0.33506587,-0.3032571,9.796232,-0.027588159,0.030475318,-0.028430939,20.775002,42.15,-4.275,-0.0032363564,-0.017287193,0.1695063,0.9853695,-19.509665,0.7012371,-1.8896049,11.05531222,76.92714728,402.8211,0.0,,3.7900925,0.59,2,2
6.400,416839862175319,0.31974095,-0.25558338,9.901799,-2.2907427E-4,-0.0038179047,-1.5271618E-4,0.33539748,-0.30317,9.796223,-0.015656546,0.04758662,0.105576515,21.675001,43.050003,-6.675,-0.0032365029,-0.017287206,0.1695063,0.9853695,-19.509665,0.70125383,-1.8896036,11.05531222,76.92714728,402.8211,0.0,,3.7900925,0.61,2,2
6.420,416839882175319,0.3475575,-0.25767708,9.956684,-8.39939E-4,-0.0015271618,0.0010690133,0.3341287,-0.30287093,9.796276,0.013428777,0.04519385,0.1604085,21.45,42.45,-7.2000003,-0.00323664,-0.017287232,0.1695063,0.9853695,-19.509666,0.7012698,-1.8896039,11.05531222,76.92714728,402.8211,0.0,,3.7900925,0.63,2,2
6.440,416839902175319,0.31181473,-0.2656033,9.824481,5.3450663E-4,0.005879573,0.0010690133,0.33417264,-0.30276993,9.796277,-0.022357926,0.037166625,0.028203964,20.775002,42.75,-3.6750002,-0.003236783,-0.01728725,0.1695063,0.9853695,-19.509666,0.7012864,-1.8896033,11.05531222,76.92714728,402.8211,0.0,,3.7900925,0.65,2,2
6.460,416839922175319,0.31660032,-0.26919258,9.784252,-3.0543236E-4,-6.872228E-4,4.5814854E-4,0.3346923,-0.30237752,9.796271,-0.018091962,0.03318496,-0.012019634,22.050001,42.45,-8.55,-0.0032369327,-0.01728727,0.1695063,0.9853695,-19.509666,0.7013036,-1.8896023,11.05531222,76.92714728,402.8211,0.0,,3.7900925,0.67,2,2
6.480,416839942175319,0.33604202,-0.25722843,9.935598,6.872228E-4,-0.0027488912,-1.5271618E-4,0.33390924,-0.3008136,9.796347,0.0021327734,0.04358515,0.13925123,22.050001,42.600002,-7.5750003,-0.0032370703,-0.017287297,0.1695063,0.9853695,-19.509666,0.70131963,-1.889603,11.05531222,76.92714728,402.8211,0.0,,3.7900925,0.69,2,2
6.500,416839962175319,0.32557344,-0.25932217,9.920045,1.5271618E-4,0.0017562361,6.108647E-4,0.3329325,-0.29980916,9.796411,-0.0073590726,0.04048699,0.12363434,20.85,42.45,-5.7000003,-0.003237206,-0.01728732,0.1695063,0.9853695,-19.509665,0.70133543,-1.8896028,11.05531222,76.92714728,402.8211,0.0,,3.7900925,0.71,2,2
6.520,416839982175319,0.3173481,-0.27128628,9.802647,1.5271618E-4,0.0022143847,6.108647E-4,0.3324149,-0.2987194,9.796462,-0.0150668025,0.027433127,0.006184578,21.150002,42.675003,-6.15,-0.0032373583,-0.017287338,0.1695063,0.9853695,-19.509665,0.70135295,-1.889602,11.05531222,76.92714728,402.8211,0.0,,3.7900925,0.73,2,2
6.540,416840002175319,0.3155535,-0.26829523,9.820443,1.5271618E-4,-3.8179045E-4,9.926552E-4,0.33254212,-0.29709545,9.796506,-0.016988635,0.02880022,0.023937225,21.0,42.375,-5.55,-0.00323751,-0.017287357,0.1695063,0.9853695,-19.509665,0.70137054,-1.8896011,11.05531222,76.92714728,402.8211,0.0,,3.7900925,0.75,2,2
6.560,416840022175319,0.3290131,-0.25378877,9.916754,1.5271618E-4,-0.0019089523,8.39939E-4,0.33211717,-0.2959464,9.7965555,-0.003104046,0.042157635,0.12019873,20.7,42.45,-4.875,-0.0032376463,-0.017287377,0.1695063,0.9853695,-19.509665,0.7013863,-1.8896006,11.05531222,76.92714728,402.8211,0.0,,3.7900925,0.77,2,2
6.580,416840042175319,0.32811582,-0.26081765,9.9038925,-7.635809E-4,8.39939E-4,2.2907427E-4,0.33124116,-0.2950085,9.796614,-0.0031253546,0.03419085,0.1072793,21.0,42.15,-5.8500004,-0.0032377837,-0.0172874,0.1695063,0.9853695,-19.509665,0.70140225,-1.8896006,11.05531222,76.92714728,402.8211,0.0,,3.7900925,0.79,2,2
6.600,416840062175319,0.31375885,-0.2675475,9.8013,7.635809E-5,0.0013744456,0.0010690133,0.33086762,-0.293894,9.796659,-0.017108753,0.02634652,0.004641056,21.300001,42.675003,-6.0750003,-0.0032379313,-0.017287415,0.1695063,0.9853695,-19.509665,0.7014192,-1.8895996,11.05531222,76.92714728,402.8211,0.0,,3.7900925,0.81,2,2
6.620,416840082175319,0.31420752,-0.26051855,9.852896,-3.0543236E-4,-0.0012980875,0.0010690133,0.33117843,-0.2924813,9.796692,-0.016970903,0.031962737,0.056203842,22.050001,42.675003,-7.5750003,-0.003238074,-0.017287428,0.1695063,0.9853695,-19.509663,0.70143557,-1.8895983,11.05531222,76.92714728,402.8211,0.0,,3.7900925,0.83,2,2
6.640,416840102175319,0.33379877,-0.25543383,9.921391,1.5271618E-4,-0.0019089523,0.0010690133,0.33050632,-0.29135314,9.796748,0.0032924265,0.03591931,0.124641895,20.550001,42.525,-5.25,-0.0032382074,-0.017287454,0.1695063,0.9853695,-19.509663,0.7014511,-1.8895983,11.05531222,76.92714728,402.8211,0.0,,3.7900925,0.85,2,2
6.660,416840122175319,0.32422745,-0.26156542,9.882059,1.5271618E-4,0.0018325942,0.0010690133,0.32977515,-0.29076695,9.79679,-0.0055476874,0.029201537,0.0852685,21.225,42.825,-7.1250005,-0.0032383464,-0.017287478,0.1695063,0.9853695,-19.509663,0.7014673,-1.8895985,11.05531222,76.92714728,402.8211,0.0,,3.7900925,0.87,2,2
6.680,416840142175319,0.31585258,-0.27098715,9.805189,-4.5814854E-4,0.0012980875,0.0010690133,0.3297668,-0.28972676,9.796821,-0.013914213,0.018739596,0.008368492,21.225,42.45,-5.55,-0.0032384982,-0.017287495,0.1695063,0.9853695,-19.509663,0.70148474,-1.8895974,11.05531222,76.92714728,402.8211,0.0,,3.7900925,0.89,2,2
6.700,416840162175319,0.32467613,-0.2597708,9.869646,-2.2907427E-4,-0.0012980875,7.635809E-4,0.32952985,-0.28854504,9.796864,-0.0048537254,0.028774232,0.07278204,20.775002,42.45,-5.25,-0.0032386424,-0.017287517,0.1695063,0.9853695,-19.509663,0.7015015,-1.8895972,11.05531222,76.92714728,402.8211,0.0,,3.7900925,0.91,2,2
6.720,416840182175319,0.3254239,-0.25842485,9.920792,1.5271618E-4,-2.2907427E-4,3.8179045E-4,0.32889926,-0.28789255,9.796904,-0.003475383,0.029467702,0.12388849,21.0,42.45,-5.025,-0.0032387786,-0.017287537,0.1695063,0.9853695,-19.509663,0.7015172,-1.8895968,11.05531222,76.92714728,402.8211,0.0,,3.7900925,0.93,2,2
6.740,416840202175319,0.3201896,-0.26485556,9.854242,-9.162971E-4,0.0013744456,4.5814854E-4,0.32833713,-0.28707972,9.7969475,-0.008147553,0.022224158,0.05729437,21.525002,42.300003,-6.9750004,-0.0032389222,-0.017287556,0.1695063,0.9853695,-19.509663,0.70153385,-1.8895962,11.05531222,76.92714728,402.8211,0.0,,3.7900925,0.95,2,2
6.760,416840222175319,0.3182454,-0.26485556,9.815956,1.5271618E-4,9.926552E-4,3.0543236E-4,0.32840368,-0.2860937,9.796974,-0.010158271,0.021238148,0.01898241,20.625,42.525,-4.425,-0.0032390656,-0.017287573,0.1695063,0.9853695,-19.509663,0.70155036,-1.8895953,11.05531222,76.92714728,402.8211,0.0,,3.7900925,0.97,2,2
6.780,416840242175319,0.3251248,-0.26051855,9.88161,1.5271618E-4,-0.0013744456,7.635809E-4,0.32845414,-0.28527695,9.796995,-0.0033293515,0.024758384,0.08461475,22.650002,42.675003,-8.175,-0.003239204,-0.017287593,0.1695063,0.9853695,-19.509663,0.70156646,-1.8895949,,,,,,,,2,2
6.800,416840262175319,0.32766715,-0.2588735,9.907482,-9.162971E-4,-0.0010690133,0.0010690133,0.32774472,-0.28469235,9.797036,-7.7575445E-5,0.025818855,0.110445976,21.225,42.825,-6.675,-0.0032393406,-0.017287616,0.1695063,0.9853695,-19.509663,0.70158225,-1.8895947,11.05531475,76.9271437,401.70837,0.0,,3.7900925,0.01,2,2
6.820,416840282175319,0.31704903,-0.2669493,9.84826,-3.8179045E-4,0.0014508037,3.8179045E-4,0.32738364,-0.28405425,9.797067,-0.010334626,0.017104968,0.051193237,22.125,42.600002,-8.625,-0.0032394887,-0.017287632,0.1695063,0.9853695,-19.509663,0.7015993,-1.8895938,11.05531475,76.9271437,401.70837,0.0,,3.7900925,0.03,2,2
6.840,416840302175319,0.31704903,-0.2672484,9.832258,1.5271618E-4,-1.5271618E-4,6.872228E-4,0.32763928,-0.28304425,9.797088,-0.01059027,0.015795872,0.03517008,21.900002,42.15,-7.2000003,-0.0032396398,-0.017287651,0.1695063,0.9853695,-19.509663,0.7016167,-1.889593,11.05531475,76.9271437,401.70837,0.0,,3.7900925,0.05,2,2
6.860,416840322175319,0.32856447,-0.25722843,9.895219,1.5271618E-4,-0.001679878,0.0,0.3273743,-0.28241327,9.797114,0.0011901557,0.02518484,0.09810448,22.800001,42.0,-9.225,-0.00323978,-0.017287672,0.1695063,0.9853695,-19.50966,0.7016329,-1.8895925,11.05531475,76.9271437,401.70837,0.0,,3.7900925,0.07,2,2
6.880,416840342175319,0.324377,-0.26126632,9.8914795,-9.162971E-4,3.0543236E-4,-1.5271618E-4,0.3266432,-0.28181118,9.797156,-0.0022661835,0.020544857,0.094323635,21.45,42.825,-5.925,-0.0032399204,-0.017287694,0.1695063,0.9853695,-19.50966,0.70164925,-1.8895925,11.05531475,76.9271437,401.70837,0.0,,3.7900925,0.09,2,2
6.900,416840362175319,0.31630123,-0.26470602,9.840334,-1.5271618E-4,0.001679878,3.8179045E-4,0.32667977,-0.28107065,9.797176,-0.010378525,0.016364634,0.0431571,22.35,42.675003,-8.400001,-0.0032400659,-0.01728771,0.1695063,0.9853695,-19.50966,0.701666,-1.8895912,11.05531475,76.9271437,401.70837,0.0,,3.7900925,0.11,2,2
6.920,416840382175319,0.3219842,-0.2606681,9.84497,0.0,-0.0012217294,-1.5271618E-4,0.32689446,-0.28038782,9.797189,-0.0049102604,0.019719705,0.04778099,21.075,42.375,-5.25,-0.0032402065,-0.01728773,0.1695063,0.9853695,-19.50966,0.70168227,-1.8895906,11.05531475,76.9271437,401.70837,0.0,,3.7900925,0.13,2,2
6.940,416840402175319,0.33035907,-0.2606681,9.897163,-4.5814854E-4,-0.0010690133,-1.5271618E-4,0.32676554,-0.2798693,9.797208,0.0035935342,0.019201174,0.09995556,20.925001,42.75,-4.425,-0.0032403455,-0.017287755,0.1695063,0.9853695,-19.50966,0.7016985,-1.8895911,11.05531475,76.9271437,401.70837,0.0,,3.7900925,0.15,2,2
6.960,416840422175319,0.324377,-0.26395828,9.878469,-5.3450663E-4,-2.2907427E-4,-1.5271618E-4,0.32621405,-0.27923962,9.797245,-0.00183703,0.015281364,0.081223965,21.300001,42.375,-5.775,-0.0032404873,-0.01728778,0.1695063,0.9853695,-19.50966,0.70171493,-1.8895911,11.05531475,76.9271437,401.70837,0.0,,3.7900925,0.17,2,2
6.980,416840442175319,0.31869406,-0.26769704,9.840184,9.926552E-4,0.0012980875,-1.5271618E-4,0.3259775,-0.278663,9.797268,-0.0072834343,0.010965973,0.042916298,20.1,42.225002,-4.3500004,-0.0032406335,-0.017287798,0.1695063,0.9853695,-19.509659,0.7017318,-1.8895904,11.05531475,76.9271437,401.70837,0.0,,3.7900925,0.19,2,2
7.000,416840462175319,0.3188436,-0.26470602,9.860823,1.5271618E-4,-3.8179045E-4,-1.5271618E-4,0.3257739,-0.27791965,9.797297,-0.0069302768,0.013213649,0.06352568,20.475,42.225002,-5.7000003,-0.003240778,-0.017287813,0.1695063,0.9853695,-19.509659,0.70174843,-1.8895891,11.05531475,76.9271437,401.70837,0.0,,3.7900925,0.21,2,2
7.020,416840482175319,0.32452658,-0.25992036,9.89522,1.5271618E-4,2.2907427E-4,0.0,0.32535383,-0.27739233,9.797325,-8.2725286E-4,0.01747197,0.09789419,22.275002,42.975002,-7.3500004,-0.0032409176,-0.017287835,0.1695063,0.9853695,-19.509659,0.70176464,-1.889589,11.05531475,76.9271437,401.70837,0.0,,3.7900925,0.23,2,2
7.040,416840502175319,0.31974095,-0.26470602,9.8632145,1.5271618E-4,7.635809E-4,0.0010690133,0.324888,-0.2769515,9.797354,-0.005147055,0.012245476,0.065861225,22.050001,42.675003,-7.425,-0.0032410612,-0.017287854,0.1695063,0.9853695,-19.509659,0.70178115,-1.8895882,11.05531475,76.9271437,401.70837,0.0,,3.7900925,0.25,2,2
7.060,416840522175319,0.31719854,-0.26605198,9.838839,1.5271618E-4,7.635809E-4,0.0010690133,0.32472154,-0.27644116,9.797374,-0.0075230002,0.010389179,0.04146433,21.75,42.975002,-7.1250005,-0.0032412088,-0.017287873,0.1695063,0.9853695,-19.50966,0.70179826,-1.8895876,11.05531475,76.9271437,401.70837,0.0,,3.7900925,0.27,2,2
7.080,416840542175319,0.31959137,-0.26470602,9.870842,1.5271618E-4,-4.5814854E-4,3.8179045E-4,0.3246334,-0.27587876,9.797393,-0.0050420165,0.011172742,0.073449135,22.650002,42.825,-9.0,-0.0032413562,-0.017287891,0.1695063,0.9853695,-19.509659,0.70181525,-1.889587,11.05531475,76.9271437,401.70837,0.0,,3.7900925,0.29,2,2
7.100,416840562175319,0.32422745,-0.26306093,9.886097,1.5271618E-4,-1.5271618E-4,3.0543236E-4,0.32416227,-0.27530593,9.797423,6.519258E-5,0.0122449845,0.088673115,21.300001,42.525,-6.8250003,-0.0032414973,-0.017287914,0.1695063,0.9853695,-19.509659,0.7018316,-1.8895868,11.05531475,76.9271437,401.70837,0.0,,3.7900925,0.31,2,2
7.120,416840582175319,0.31645077,-0.26111677,9.851999,1.5271618E-4,7.635809E-4,-1.5271618E-4,0.32417345,-0.274823,9.797437,-0.007722661,0.013706237,0.05456209,22.5,42.225002,-8.925,-0.0032416407,-0.01728793,0.1695063,0.9853695,-19.509659,0.7018481,-1.889586,11.05531475,76.9271437,401.70837,0.0,,3.7900925,0.33,2,2
7.140,416840602175319,0.32362926,-0.2635096,9.853793,1.5271618E-4,-4.5814854E-4,-7.635809E-5,0.3242004,-0.27441475,9.797447,-5.711317E-4,0.010905147,0.05634594,21.0,42.45,-5.4750004,-0.0032417828,-0.017287955,0.1695063,0.9853695,-19.509659,0.70186466,-1.889586,11.05531475,76.9271437,401.70837,0.0,,3.7900925,0.35,2,2
7.160,416840622175319,0.32512477,-0.2656033,9.876675,1.5271618E-4,-4.5814854E-4,0.0010690133,0.3240425,-0.2738884,9.797467,0.0010822713,0.00828509,0.07920694,20.925001,42.75,-4.9500003,-0.003241925,-0.017287979,0.1695063,0.9853695,-19.509659,0.7018812,-1.8895857,11.05531475,76.9271437,401.70837,0.0,,3.7900925,0.37,2,2
7.180,416840642175319,0.32497522,-0.26186454,9.876077,1.5271618E-4,5.3450663E-4,7.635809E-5,0.32371202,-0.2736608,9.797485,0.0012632012,0.011796281,0.07859135,22.275002,42.825,-8.025001,-0.0032420673,-0.017288001,0.1695063,0.9853695,-19.509659,0.7018977,-1.8895855,11.05531475,76.9271437,401.70837,0.0,,3.7900925,0.39,2,2
7.200,416840662175319,0.3201896,-0.26979077,9.854391,1.5271618E-4,7.635809E-4,-1.5271618E-4,0.32346293,-0.273286,9.797503,-0.003273353,0.003495261,0.056887627,20.7,42.675003,-4.875,-0.0032422147,-0.01728802,0.1695063,0.9853695,-19.509657,0.7019146,-1.8895849,11.05531475,76.9271437,401.70837,0.0,,3.7900925,0.41,2,2
7.220,416840682175319,0.32243285,-0.26515466,9.8581295,1.5271618E-4,7.635809E-4,-1.5271618E-4,0.32348335,-0.27294278,9.797513,-0.0010505021,0.0077881217,0.06061697,20.625,42.375,-5.4,-0.003242358,-0.017288042,0.1695063,0.9853695,-19.509657,0.7019313,-1.8895847,11.05531475,76.9271437,401.70837,0.0,,3.7900925,0.43,2,2
7.240,416840702175319,0.32826537,-0.2638087,9.876675,-2.2907427E-4,2.2907427E-4,3.0543236E-4,0.32330438,-0.27260205,9.797528,0.004960969,0.008793354,0.079146385,20.625,42.300003,-4.9500003,-0.0032425025,-0.017288065,0.1695063,0.9853695,-19.509657,0.701948,-1.8895844,11.05531475,76.9271437,401.70837,0.0,,3.7900925,0.45,2,2
7.260,416840722175319,0.32482567,-0.2650051,9.866804,7.635809E-5,7.635809E-4,4.5814854E-4,0.3230437,-0.27215478,9.797549,0.0017819703,0.0071496665,0.069254875,20.775002,42.15,-6.525,-0.0032426433,-0.01728809,0.1695063,0.9853695,-19.509657,0.70196444,-1.8895844,11.05531475,76.9271437,401.70837,0.0,,3.7900925,0.47,2,2
7.280,416840742175319,0.32108688,-0.26186454,9.863365,1.5271618E-4,6.108647E-4,0.0010690133,0.3229529,-0.27179793,9.797562,-0.0018659979,0.009933397,0.06580305,20.775002,42.375,-4.9500003,-0.0032427856,-0.01728811,0.1695063,0.9853695,-19.509657,0.7019808,-1.8895838,11.05531475,76.9271437,401.70837,0.0,,3.7900925,0.49,2,2
7.300,416840762175319,0.32004002,-0.26216364,9.869646,-1.5271618E-4,-4.5814854E-4,0.0010690133,0.32295284,-0.27147803,9.79757,-0.0029128194,0.009314403,0.07207537,20.625,42.525,-5.25,-0.0032429276,-0.017288128,0.1695063,0.9853695,-19.509657,0.7019973,-1.8895831,11.05531475,76.9271437,401.70837,0.0,,3.7900925,0.51,2,2
7.320,416840782175319,0.32318062,-0.26156545,9.88146,-5.3450663E-4,-4.5814854E-4,5.3450663E-4,0.3226278,-0.27121553,9.797589,5.528033E-4,0.009650096,0.08387089,21.150002,42.975002,-5.625,-0.0032430675,-0.017288148,0.1695063,0.9853695,-19.509655,0.70201343,-1.8895828,11.05531475,76.9271437,401.70837,0.0,,3.7900925,0.53,2,2
7.340,416840802175319,0.32004005,-0.26321048,9.871889,-3.8179045E-4,7.635809E-4,5.3450663E-4,0.3223886,-0.2708281,9.797606,-0.002348557,0.0076176077,0.07428217,21.900002,42.525,-5.925,-0.0032432086,-0.017288167,0.1695063,0.9853695,-19.509655,0.7020297,-1.889582,11.05531475,76.9271437,401.70837,0.0,,3.7900925,0.55,2,2
7.360,416840822175319,0.32168508,-0.2623132,9.856186,1.5271618E-4,7.635809E-4,2.2907427E-4,0.32238728,-0.27044138,9.797617,-7.021874E-4,0.008128196,0.058568954,20.1,42.525,-4.275,-0.0032433497,-0.017288184,0.1695063,0.9853695,-19.509655,0.70204604,-1.8895812,11.05531475,76.9271437,401.70837,0.0,,3.7900925,0.57,2,2
7.380,416840842175319,0.3234797,-0.2623132,9.874432,1.5271618E-4,-2.2907427E-4,3.0543236E-4,0.3222321,-0.26991796,9.797637,0.0012476146,0.007604778,0.076794624,21.300001,42.600002,-6.0750003,-0.0032434915,-0.017288204,0.1695063,0.9853695,-19.509655,0.70206237,-1.889581,11.05531475,76.9271437,401.70837,0.0,,3.7900925,0.59,2,2
7.400,416840862175319,0.32138598,-0.25782663,9.879665,1.5271618E-4,1.5271618E-4,9.926552E-4,0.32199055,-0.26961857,9.797653,-6.04555E-4,0.01179193,0.08201218,21.0,42.600002,-6.0,-0.0032436291,-0.017288225,0.1695063,0.9853695,-19.509655,0.70207834,-1.8895804,11.05531475,76.9271437,401.70837,0.0,,3.7900925,0.61,2,2
7.420,416840882175319,0.32153553,-0.26365915,9.86157,1.5271618E-4,7.635809E-4,0.0010690133,0.32187393,-0.26942164,9.797664,-3.3839047E-4,0.0057624876,0.06390619,21.975,42.9,-7.5000005,-0.0032437749,-0.017288245,0.1695063,0.9853695,-19.509655,0.70209515,-1.8895799,11.05531475,76.9271437,401.70837,0.0,,3.7900925,0.63,2,2
7.440,416840902175319,0.32243288,-0.2638087,9.856336,-2.2907427E-4,3.0543236E-4,0.0010690133,0.3218609,-0.26919648,9.79767,5.7195127E-4,0.005387783,0.058665276,21.225,42.375,-5.55,-0.0032439197,-0.017288268,0.1695063,0.9853695,-19.509653,0.702112,-1.8895798,11.05531475,76.9271437,401.70837,0.0,,3.7900925,0.65,2,2
7.460,416840922175319,0.32153553,-0.2623132,9.8756275,-4.5814854E-4,-4.5814854E-4,0.0010690133,0.32180876,-0.26873958,9.797684,-2.732128E-4,0.006426394,0.0779438,21.300001,42.600002,-6.3750005,-0.0032440645,-0.017288288,0.1695063,0.9853695,-19.509653,0.70212877,-1.889579,11.05531475,76.9271437,401.70837,0.0,,3.7900925,0.67,2,2
7.480,416840942175319,0.3240779,-0.2585744,9.870394,1.5271618E-4,2.2907427E-4,-1.5271618E-4,0.32162654,-0.2685784,9.797694,0.0024513751,0.010004014,0.07269955,21.75,42.675003,-7.5000005,-0.0032442012,-0.017288312,0.1695063,0.9853695,-19.509653,0.7021446,-1.8895793,11.05531475,76.9271437,401.70837,0.0,,3.7900925,0.69,2,2
7.500,416840962175319,0.31959137,-0.26470602,9.859476,-1.5271618E-4,2.2907427E-4,-1.5271618E-4,0.32159624,-0.2683448,9.797702,-0.0020048618,0.0036387742,0.061774254,21.825,42.15,-7.2000003,-0.0032443444,-0.01728833,0.1695063,0.9853695,-19.509653,0.70216113,-1.8895785,11.05531475,76.9271437,401.70837,0.0,,3.7900925,0.71,2,2
7.520,416840982175319,0.32093734,-0.26365912,9.860074,0.0,-3.0543236E-4,-1.5271618E-4,0.32170457,-0.2679802,9.797708,-7.672161E-4,0.0043210536,0.062366486,21.150002,42.75,-6.8250003,-0.0032444885,-0.01728835,0.1695063,0.9853695,-19.509653,0.70217776,-1.8895779,11.05531475,76.9271437,401.70837,0.0,,3.7900925,0.73,2,2
7.540,416841002175319,0.32587254,-0.26051855,9.879665,1.5271618E-4,-3.0543236E-4,0.0010690133,0.3217208,-0.26800925,9.797707,0.0041517317,0.0074906796,0.08195925,20.775002,42.225002,-3.6000001,-0.003244627,-0.017288374,0.1695063,0.9853695,-19.509653,0.7021939,-1.8895779,11.05531475,76.9271437,401.70837,0.0,,3.7900925,0.75,2,2
7.560,416841022175319,0.32422745,-0.2670988,9.869795,-6.872228E-4,-7.635809E-5,0.0010690133,0.32157102,-0.26789007,9.797715,0.002656445,7.9125166E-4,0.072080135,21.825,42.9,-7.7250004,-0.0032447749,-0.017288394,0.1695063,0.9853695,-19.509651,0.702211,-1.8895774,11.05531475,76.9271437,401.70837,0.0,,3.7900925,0.77,2,2
7.580,416841042175319,0.3164508,-0.2659024,9.857383,0.0,-4.5814854E-4,4.5814854E-4,0.3215168,-0.26780167,9.797719,-0.0050660074,0.0018992573,0.059663773,19.95,42.375,-5.025,-0.0032449185,-0.01728841,0.1695063,0.9853695,-19.509651,0.7022275,-1.8895763,11.05531475,76.9271437,401.70837,0.0,,3.7900925,0.79,2,2
7.600,416841062175319,0.31974092,-0.26485556,9.868748,-3.8179045E-4,-4.5814854E-4,0.0010690133,0.32159907,-0.2674844,9.797726,-0.001858145,0.002628848,0.07102251,21.525002,42.825,-6.2250004,-0.0032450622,-0.017288428,0.1695063,0.9853695,-19.509651,0.7022441,-1.8895757,11.05531475,76.9271437,401.70837,0.0,,3.7900925,0.81,2,2
7.620,416841082175319,0.325723,-0.26156542,9.879217,1.5271618E-4,-2.2907427E-4,3.0543236E-4,0.3214248,-0.2672976,9.797736,0.0042981654,0.0057321787,0.08148098,20.625,42.600002,-4.425,-0.0032452035,-0.017288452,0.1695063,0.9853695,-19.509651,0.7022606,-1.8895757,11.05531475,76.9271437,401.70837,0.0,,3.7900925,0.83,2,2
7.640,416841102175319,0.3198905,-0.26171497,9.86157,-3.0543236E-4,2.2907427E-4,3.0543236E-4,0.32136238,-0.26699534,9.797746,-0.001471892,0.0052803755,0.06382418,20.85,42.45,-6.0,-0.0032453458,-0.017288467,0.1695063,0.9853695,-19.509651,0.70227695,-1.8895744,11.05531475,76.9271437,401.70837,0.0,,3.7900925,0.85,2,2
7.660,416841122175319,0.3225824,-0.26111674,9.862916,1.5271618E-4,1.5271618E-4,3.8179045E-4,0.32135677,-0.2668507,9.79775,0.0012256205,0.005733952,0.06516552,20.475,42.300003,-4.9500003,-0.0032454852,-0.017288487,0.1695063,0.9853695,-19.509651,0.7022931,-1.8895739,11.05531475,76.9271437,401.70837,0.0,,3.7900925,0.87,2,2
7.680,416841142175319,0.32093734,-0.2656033,9.868748,1.5271618E-4,-4.5814854E-4,0.0010690133,0.321368,-0.26664194,9.797756,-4.3067336E-4,0.0010386258,0.07099199,20.625,42.525,-4.9500003,-0.0032456303,-0.017288506,0.1695063,0.9853695,-19.50965,0.70230985,-1.8895733,11.05531475,76.9271437,401.70837,0.0,,3.7900925,0.89,2,2
7.700,416841162175319,0.32362926,-0.26051855,9.866505,-3.0543236E-4,-7.635809E-5,5.3450663E-4,0.32126835,-0.26669624,9.797757,0.0023609102,0.0061776787,0.068748,20.550001,42.375,-5.7000003,-0.003245771,-0.017288527,0.1695063,0.9853695,-19.50965,0.7023261,-1.8895729,11.05531475,76.9271437,401.70837,0.0,,3.7900925,0.91,2,2
7.720,416841182175319,0.32497522,-0.26814568,9.861271,-3.0543236E-4,7.635809E-4,0.0010690133,0.32107493,-0.26639423,9.797771,0.0039002895,-0.0017514676,0.06349945,22.125,42.225002,-7.7250004,-0.0032459188,-0.01728855,0.1695063,0.9853695,-19.509651,0.7023433,-1.8895731,11.05531475,76.9271437,401.70837,0.0,,3.7900925,0.93,2,2
7.740,416841202175319,0.32198417,-0.26051855,9.863364,1.5271618E-4,7.635809E-4,3.8179045E-4,0.32109165,-0.26606804,9.79778,8.9253485E-4,0.0055494756,0.06558418,20.400002,42.75,-4.875,-0.0032460617,-0.017288571,0.1695063,0.9853695,-19.509651,0.7023598,-1.8895727,11.05531475,76.9271437,401.70837,0.0,,3.7900925,0.95,2,2
7.760,416841222175319,0.32333016,-0.2594717,9.865009,1.5271618E-4,-7.635809E-5,3.0543236E-4,0.32103896,-0.26584628,9.797788,0.0022911876,0.0063745677,0.06722164,21.675001,42.300003,-6.2250004,-0.0032461993,-0.017288595,0.1695063,0.9853695,-19.509651,0.70237577,-1.8895725,11.05531475,76.9271437,401.70837,0.0,,3.7900925,0.97,2,2
7.780,416841242175319,0.3191427,-0.26261228,9.869197,1.5271618E-4,-4.5814854E-4,-1.5271618E-4,0.3209842,-0.26589483,9.797789,-0.0018415004,0.003282547,0.07140827,21.075,42.675003,-4.5,-0.0032463404,-0.017288612,0.1695063,0.9853695,-19.509651,0.7023921,-1.8895717,11.05531475,76.9271437,401.70837,0.0,,3.7900925,0.99,2,2
7.800,416841262175319,0.31944183,-0.26739794,9.865009,-3.0543236E-4,-3.8179045E-4,-1.5271618E-4,0.32080922,-0.2658272,9.797796,-0.0013673902,-0.0015707165,0.06721306,22.575,42.75,-8.625,-0.003246488,-0.01728863,0.1695063,0.9853695,-19.50965,0.7024091,-1.889571,11.05530714,76.92714862,402.19946,0.0,,3.7900925,0.01,2,2
7.820,416841282175319,0.31779677,-0.26216364,9.868,-6.108647E-4,-7.635809E-5,6.108647E-4,0.32086262,-0.2659247,9.7977915,-0.0030658543,0.003761053,0.07020903,21.375,42.225002,-6.15,-0.0032466287,-0.017288648,0.1695063,0.9853695,-19.50965,0.7024253,-1.8895701,11.05530714,76.92714862,402.19946,0.0,,3.7900925,0.03,2,2
7.840,416841302175319,0.3219842,-0.26455647,9.863962,-0.0010690133,-4.5814854E-4,0.0010690133,0.32079682,-0.26583758,9.797796,0.0011873841,0.0012811124,0.0661664,21.375,42.15,-5.8500004,-0.0032467737,-0.017288664,0.1695063,0.9853695,-19.50965,0.70244205,-1.8895693,11.05530714,76.92714862,402.19946,0.0,,3.7900925,0.05,2,2
7.860,416841322175319,0.32153553,-0.2623132,9.86157,-4.5814854E-4,7.635809E-5,4.5814854E-4,0.3208779,-0.2657689,9.797795,6.5763295E-4,0.0034556985,0.063774586,21.900002,42.675003,-7.2000003,-0.003246916,-0.017288683,0.1695063,0.9853695,-19.50965,0.70245844,-1.8895687,11.05530714,76.92714862,402.19946,0.0,,3.7900925,0.07,2,2
