t_s,t_ns,acc_x_mps2,acc_y_mps2,acc_z_mps2,gyr_x_rads,gyr_y_rads,gyr_z_rads,grav_x_mps2,grav_y_mps2,grav_z_mps2,linacc_x_mps2,linacc_y_mps2,linacc_z_mps2,mag_x_uT,mag_y_uT,mag_z_uT,rot_x,rot_y,rot_z,rot_w,yaw_deg,pitch_deg,roll_deg,gnss_lat,gnss_lon,gnss_alt_m,gnss_speed_mps,gnss_bearing_deg,gnss_acc_m,gnss_age_s,n_acc,n_gyr
0.000,416967183809591,1.2044871,4.636991,9.450932,0.40221626,-1.1594976,0.6435078,2.027311,4.5205226,8.463171,-0.822824,0.11646862,0.98776054,,,,,,,,,,,,,,,,,,5,4
0.020,416967203809591,2.841178,4.5017967,8.545517,0.41523528,-0.51335543,0.4691441,2.3518813,4.5372763,8.369717,0.48929656,-0.035479546,0.1758008,,,,,,,,,,,,,,,,,,2,2
0.040,416967223809591,3.0966115,4.358676,8.173433,0.4219548,-0.06879864,0.15149444,2.321473,4.672812,8.303371,0.77513874,-0.31413603,-0.12993813,,,,,,,,,,,,,,,,,,2,2
0.060,416967243809591,2.2377377,4.7265725,7.821389,0.3636936,0.16821687,-0.03397935,2.1461234,4.841342,8.253845,0.091614366,-0.11476946,-0.43245578,9.450001,44.025,-26.250002,0.23596385,-0.063509256,0.18204488,0.95230615,-24.610956,-25.232761,-13.220687,,,,,,,,2,2
0.080,416967263809591,1.4226826,5.33076,7.886594,0.20318888,0.16394082,0.017638717,2.0158947,4.9603,8.215959,-0.593212,0.37046027,-0.32936478,9.375,44.025,-27.000002,0.24171206,-0.064257145,0.1841178,0.95044583,-25.04885,-25.836637,-13.568694,11.05527154,76.92693958,377.3905,0.0,,3.7900925,0.01,2,2
0.100,416967283809591,0.9592228,5.445167,7.541579,-0.07849611,-0.15943569,0.13110684,2.0701337,4.98055,8.190181,-1.1109109,0.46461725,-0.648602,9.3,43.725002,-26.175001,0.24517004,-0.0648757,0.18555486,0.9492731,-25.344715,-26.192644,-13.80785,11.05527154,76.92693958,377.3905,0.0,,3.7900925,0.03,2,2
0.120,416967303809591,1.4653047,4.8550367,6.25095,-0.53862995,-0.36209005,0.26824597,2.1683402,4.7816324,8.282794,-0.7030355,0.07340455,-2.0318441,8.700001,43.800003,-23.775002,0.24582204,-0.06714405,0.18679342,0.9487285,-25.580612,-26.190216,-14.141998,11.05527154,76.92693958,377.3905,0.0,,3.7900925,0.05,2,2
0.140,416967323809591,2.1369402,4.0894833,6.743572,-1.1882083,-0.14744747,0.27633995,2.217611,4.3817744,8.488383,-0.08067083,-0.29229105,-1.7448108,9.150001,44.625,-22.95,0.24223493,-0.070475124,0.18808165,0.94915473,-25.725294,-25.678867,-14.451072,11.05527154,76.92693958,377.3905,0.0,,3.7900925,0.07,2,2
0.160,416967343809591,2.4091237,3.368496,8.219346,-1.7375283,0.08903353,0.24197878,2.1937096,3.911989,8.720917,0.21541405,-0.5434929,-0.50157094,10.8,45.075,-22.800001,0.2331903,-0.074032195,0.18940976,0.9508312,-25.718475,-24.544783,-14.589314,11.05527154,76.92693958,377.3905,0.0,,3.7900925,0.09,2,2
0.180,416967363809591,2.2707887,2.7436702,9.042477,-1.9482766,0.25557053,0.09498946,2.1723247,3.4013567,8.937682,0.09846401,-0.6576865,0.1047945,9.975,45.675003,-19.650002,0.21956971,-0.07689532,0.19032827,0.95367604,-25.52037,-22.92501,-14.477368,11.05527154,76.92693958,377.3905,0.0,,3.7900925,0.11,2,2
0.200,416967383809591,2.2492533,2.143969,10.0163555,-2.0375392,0.07536544,-0.05322159,2.188371,2.918393,9.102989,0.06088233,-0.7744237,0.9133668,10.575001,46.2,-18.300001,0.20302477,-0.07965122,0.1901907,0.9571916,-25.12844,-21.000088,-14.244127,11.05527154,76.92693958,377.3905,0.0,,3.7900925,0.13,2,2
0.220,416967403809591,2.951098,2.0057836,11.453096,-1.9119302,-0.003894263,-0.18539745,2.1750102,2.561722,9.212888,0.7760879,-0.5559384,2.2402081,10.275001,46.350002,-16.2,0.18520872,-0.08280821,0.18877794,0.9608268,-24.580456,-18.943905,-14.014797,11.05527154,76.92693958,377.3905,0.0,,3.7900925,0.15,2,2
0.240,416967423809591,3.0152557,1.9135103,12.204891,-1.3876555,0.058566652,-0.3539961,2.1161573,2.397169,9.270699,0.8990984,-0.48365873,2.9341927,10.875,46.5,-14.700001,0.168518,-0.08549472,0.1861216,0.96418166,-23.925007,-17.045986,-13.771615,11.05527154,76.92693958,377.3905,0.0,,3.7900925,0.17,2,2
0.260,416967443809591,2.4456143,1.9390836,12.454792,-0.49434227,0.09865465,-0.34063345,2.0720086,2.45072,9.266668,0.37360573,-0.5116365,3.1881232,9.450001,46.725002,-12.825001,0.15584922,-0.08690475,0.18289256,0.9666826,-23.28637,-15.6360035,-13.5136595,11.05527154,76.92693958,377.3905,0.0,,3.7900925,0.19,2,2
0.280,416967463809591,2.4515963,1.9637597,12.150604,0.6479747,0.11965313,-0.17959422,2.0461066,2.7024019,9.20222,0.4054898,-0.7386422,2.9483838,9.075001,46.800003,-12.525001,0.15008081,-0.08671098,0.18041487,0.9681016,-22.870422,-15.028474,-13.291771,11.05527154,76.92693958,377.3905,0.0,,3.7900925,0.21,2,2
0.300,416967483809591,2.500051,1.9929221,10.990683,1.6996547,0.16256636,-0.05597048,2.0183246,3.0846403,9.08745,0.4817263,-1.0917182,1.903233,8.700001,45.825,-14.400001,0.15283273,-0.084746204,0.17935464,0.9680708,-22.771544,-15.397053,-13.123705,11.05527154,76.92693958,377.3905,0.0,,3.7900925,0.23,2,2
0.320,416967503809591,2.736791,2.4912274,8.369346,2.173533,0.41355544,-0.012293652,1.8975916,3.4288845,8.989565,0.8391993,-0.9376571,-0.62021923,9.375,45.225002,-17.475,0.16305059,-0.08078869,0.17972183,0.9666144,-22.961725,-16.629103,-12.954057,11.05527154,76.92693958,377.3905,0.0,,3.7900925,0.25,2,2
0.340,416967523809591,2.771786,2.874528,7.2326055,1.855578,0.97646725,-0.10980293,1.6250741,3.6713815,8.947093,1.1467118,-0.79685366,-1.7144876,9.225,44.550003,-18.825,0.17654103,-0.07369914,0.18095258,0.9646661,-23.273392,-18.296486,-12.536168,11.05527154,76.92693958,377.3905,0.0,,3.7900925,0.27,2,2
0.360,416967543809591,1.5548861,3.7078283,8.3994055,1.2306633,1.4181988,-0.21784964,1.3034635,3.841509,8.92828,0.25142264,-0.13368082,-0.5288744,8.700001,43.275,-18.525002,0.18907167,-0.06282944,0.18229991,0.9628326,-23.499031,-19.94885,-11.656732,11.05527154,76.92693958,377.3905,0.0,,3.7900925,0.29,2,2
0.380,416967563809591,0.634098,4.5212383,10.081112,0.85337806,1.4694351,-0.18303034,1.0457652,4.0111265,8.887498,-0.41166717,0.5101118,1.1936135,9.0,42.75,-18.525002,0.19884485,-0.049251992,0.18366896,0.96140164,-23.593342,-21.361275,-10.376694,11.05527154,76.92693958,377.3905,0.0,,3.7900925,0.31,2,2
0.400,416967583809591,0.30164522,4.9637613,10.785349,0.900491,1.1620938,-0.032223113,0.8882673,4.1951632,8.819408,-0.58662206,0.76859784,1.9659405,9.3,42.075,-19.875,0.20699972,-0.0352849,0.18533619,0.9599762,-23.657421,-22.603424,-9.003528,11.05527154,76.92693958,377.3905,0.0,,3.7900925,0.33,2,2
0.420,416967603809591,0.3182454,5.2550874,11.250604,1.0450368,0.71700245,0.08407026,0.8340902,4.3971415,8.725814,-0.51584476,0.8579459,2.5247898,9.75,41.475002,-20.85,0.21510732,-0.02289895,0.18728992,0.9581365,-23.768806,-23.805107,-7.8181744,11.05527154,76.92693958,377.3905,0.0,,3.7900925,0.35,2,2
0.440,416967623809591,0.8908778,5.387889,11.104492,1.1863756,0.3325395,0.13416116,0.8286258,4.6237574,8.608405,0.062251985,0.7641313,2.4960866,9.375,40.725002,-20.400002,0.224033,-0.013092306,0.18926889,0.9557802,-23.943829,-25.042896,-6.9632487,11.05527154,76.92693958,377.3905,0.0,,3.7900925,0.37,2,2
0.460,416967643809591,0.9163015,4.84083,9.947712,1.3893354,0.0703258,0.08422297,0.8743026,4.857295,8.474236,0.041998863,-0.016465425,1.4734764,9.450001,40.5,-20.7,0.23432069,-0.005982069,0.19094495,0.9531008,-24.170153,-26.383547,-6.4664354,11.05527154,76.92693958,377.3905,0.0,,3.7900925,0.39,2,2
0.480,416967663809591,1.0344472,4.760371,7.688139,1.2963314,-0.22120939,-0.010919207,0.8897113,5.031053,8.370621,0.14473584,-0.2706821,-0.6824815,10.275001,39.375,-24.075,0.24596396,-0.001488099,0.19167708,0.94996345,-24.37067,-27.82309,-6.3049064,11.05527154,76.92693958,377.3905,0.0,,3.7900925,0.41,2,2
0.500,416967683809591,1.2735798,4.9468617,6.7912793,0.8686496,-0.09651663,-0.19708024,0.7848738,5.1616526,8.301308,0.4887061,-0.21479082,-1.5100284,9.3,39.075,-23.325,0.25690404,0.001273679,0.19129108,0.9471248,-24.468958,-29.151964,-6.3030276,11.05527154,76.92693958,377.3905,0.0,,3.7900925,0.43,2,2
0.520,416967703809591,0.5024927,5.771638,8.250452,0.63155776,0.30054545,-0.42096215,0.6352523,5.331995,8.205893,-0.13275956,0.43964267,0.044559956,9.525001,38.550003,-23.625,0.26583156,0.0048523806,0.1897138,0.944979,-24.346546,-30.281685,-6.0955815,11.05527154,76.92693958,377.3905,0.0,,3.7900925,0.45,2,2
0.540,416967723809591,-0.39661038,6.7501526,9.257233,0.86788607,0.40362886,-0.40645412,0.5560316,5.533955,8.076914,-0.95264196,1.2161977,1.1803188,8.625,38.100002,-25.050001,0.27390355,0.010003042,0.18743657,0.9430929,-24.056437,-31.357935,-5.6328835,11.05527154,76.92693958,377.3905,0.0,,3.7900925,0.47,2,2
0.560,416967743809591,-0.64082783,6.9683485,8.200353,1.0186932,0.104992375,-0.18868084,0.6160407,5.6522145,7.990204,-1.2568685,1.3161337,0.21014881,8.325001,37.65,-24.750002,0.2826038,0.015066988,0.18521364,0.9408923,-23.779652,-32.50551,-5.193374,11.05527154,76.92693958,377.3905,0.0,,3.7900925,0.49,2,2
0.580,416967763809591,0.38629133,6.0442696,7.732257,0.65713775,-0.37377286,0.059788384,0.7138544,5.711503,7.9397435,-0.32756305,0.33276677,-0.20748663,8.55,37.350002,-25.275002,0.29102615,0.017534737,0.18353975,0.9386244,-23.656393,-33.55692,-5.0888915,11.05527154,76.92693958,377.3905,0.0,,3.7900925,0.51,2,2
0.600,416967783809591,-0.09062816,6.079116,7.2626653,0.27023128,-0.62323475,0.19188789,0.8367806,5.718296,7.9228325,-0.92740875,0.36081958,-0.6601672,8.475,36.825,-26.025002,0.29782483,0.016817736,0.18235998,0.93676555,-23.683424,-34.34105,-5.359164,11.05527154,76.92693958,377.3905,0.0,,3.7900925,0.53,2,2
0.620,416967803809591,0.65398836,6.0749283,7.767551,0.010231983,-0.6029235,0.28031057,0.9604245,5.697962,7.9234595,-0.30643615,0.37696624,-0.15590858,9.150001,37.875,-27.525002,0.3026291,0.013793718,0.18189317,0.93539524,-23.854565,-34.83211,-5.894112,11.05527154,76.92693958,377.3905,0.0,,3.7900925,0.55,2,2
0.640,416967823809591,0.95249295,5.9654565,8.141579,-0.10461058,-0.5510763,0.32055128,1.0776299,5.658597,7.9365845,-0.12513694,0.3068595,0.20499468,9.525001,37.425003,-28.800001,0.3056437,0.009384822,0.18209723,0.9344498,-24.132252,-35.074097,-6.5797315,11.05527154,76.92693958,377.3905,0.0,,3.7900925,0.57,2,2
0.660,416967843809591,1.2746267,5.622834,8.30788,-0.16737694,-0.47288567,0.32322377,1.1940824,5.599267,7.9619575,0.08054429,0.023566961,0.34592295,8.25,37.725002,-26.85,0.3069815,0.004158681,0.1829606,0.93389136,-24.490742,-35.092384,-7.3423166,11.05527154,76.92693958,377.3905,0.0,,3.7900925,0.59,2,2
0.680,416967863809591,1.5809081,5.206184,8.1993065,-0.26396993,-0.47563452,0.26152647,1.2924317,5.540954,7.9873548,0.2884763,-0.3347702,0.21195126,8.925,38.100002,-27.075,0.30688885,-0.0014928193,0.18401621,0.93372655,-24.852095,-34.928314,-8.115234,11.05527154,76.92693958,377.3905,0.0,,3.7900925,0.61,2,2
0.700,416967883809591,1.9848464,4.9852962,7.9381895,-0.27145302,-0.38354668,0.15363248,1.3397481,5.5028825,8.0058565,0.6450982,-0.51758623,-0.067667246,8.775001,37.95,-27.225,0.30587837,-0.007105423,0.18487114,0.9338659,-25.15531,-34.657642,-8.837367,11.05527154,76.92693958,377.3905,0.0,,3.7900925,0.63,2,2
0.720,416967903809591,1.762613,4.9674997,7.6594253,-0.19112429,-0.18661916,0.039095342,1.3620155,5.473105,8.022495,0.4005975,-0.5056052,-0.36307,8.1,38.850002,-25.650002,0.30452198,-0.011756049,0.18539026,0.93416744,-25.36251,-34.373837,-9.405191,11.05527154,76.92693958,377.3905,0.0,,3.7900925,0.65,2,2
0.740,416967923809591,1.7938693,5.019843,7.8889866,-0.1448513,-0.08445205,-0.03161225,1.3671242,5.4509377,8.036706,0.426745,-0.43109488,-0.14771938,7.9500003,38.325,-25.725,0.30306563,-0.01516201,0.18556346,0.9345689,-25.470373,-34.11421,-9.792853,11.05527154,76.92693958,377.3905,0.0,,3.7900925,0.67,2,2
0.760,416967943809591,1.9692931,5.203492,8.095966,-0.1131627,0.0065667955,-0.080786854,1.3495674,5.4427357,8.045227,0.61972564,-0.23924375,0.05073881,7.8750005,38.625,-25.575,0.30166933,-0.017464558,0.18544337,0.935015,-25.497856,-33.893665,-10.028416,11.05527154,76.92693958,377.3905,0.0,,3.7900925,0.69,2,2
0.780,416967963809591,2.001297,5.341827,8.185995,-0.04192059,0.1278998,-0.11163553,1.3204136,5.4572024,8.040263,0.68088347,-0.11537552,0.1457324,8.55,39.225002,-27.375002,0.30051562,-0.01858172,0.1851707,0.93542826,-25.467707,-33.73414,-10.115341,11.05527154,76.92693958,377.3905,0.0,,3.7900925,0.71,2,2
0.800,416967983809591,1.9284655,5.3167024,8.343922,0.112704545,0.19188789,-0.10743584,1.2937586,5.5047445,8.012138,0.63470685,-0.18804216,0.33178377,9.75,39.300003,-28.725,0.2999324,-0.018559905,0.18491691,0.935673,-25.415365,-33.670307,-10.079745,11.05527154,76.92693958,377.3905,0.0,,3.7900925,0.73,2,2
0.820,416968003809591,1.4374882,5.462964,8.869745,0.3520108,0.15477785,-0.026419898,1.315349,5.607546,7.936981,0.122139215,-0.14458203,0.9327636,9.375,38.775,-28.875002,0.30043873,-0.017670896,0.18486257,0.93554175,-25.390728,-33.75292,-9.983603,11.05527154,76.92693958,377.3905,0.0,,3.7900925,0.75,2,2
0.840,416968023809591,1.4072788,5.6940203,9.312866,0.7502183,-0.027336197,0.16653699,1.3869582,5.7564983,7.8172536,0.020320594,-0.062477827,1.4956121,9.075001,38.550003,-29.550001,0.3031168,-0.016691318,0.18540369,0.9345837,-25.508387,-34.08255,-9.98432,11.05527154,76.92693958,377.3905,0.0,,3.7900925,0.77,2,2
0.860,416968043809591,1.8424735,5.798258,8.678917,1.045953,-0.1987601,0.28374666,1.4695891,5.930362,7.6708207,0.37288433,-0.13210416,1.0080962,8.325001,37.725002,-27.900002,0.3085959,-0.01655746,0.18673275,0.9325041,-25.852991,-34.70493,-10.239075,11.05527154,76.92693958,377.3905,0.0,,3.7900925,0.79,2,2
0.880,416968063809591,1.2339487,5.8299627,8.010572,1.204778,-0.32093304,0.32574362,1.5815555,6.122752,7.495397,-0.34760678,-0.29278922,0.5151751,8.85,37.125,-29.1,0.31654838,-0.01699921,0.18837349,0.92945564,-26.351976,-35.593517,-10.691896,11.05527154,76.92693958,377.3905,0.0,,3.7900925,0.81,2,2
0.900,416968083809591,1.3775182,5.756982,8.156834,1.4193442,-0.43073598,0.42416918,1.7343158,6.344984,7.2734933,-0.35679764,-0.58800244,0.8833399,7.8750005,35.850002,-29.325,0.33905345,-0.020608183,0.19270808,0.9204932,-27.921452,-38.04281,-12.363655,11.05527154,76.92693958,377.3905,0.0,,3.7900925,0.83,2,2
0.920,416968103809591,2.032703,5.7267723,7.0468626,1.6336813,-0.6087267,0.43394303,1.833615,6.5798893,7.0365696,0.19908786,-0.853117,0.010293245,7.5000005,34.875,-29.775002,0.33905345,-0.020608183,0.19270808,0.9204932,-27.921452,-38.04281,-12.363655,11.05527154,76.92693958,377.3905,0.0,,3.7900925,0.85,2,2
0.940,416968123809591,1.9121644,5.8395343,3.4280176,1.5209768,-0.32711804,0.30008727,1.7876033,6.740223,6.8952346,0.12456113,-0.90068865,-3.467217,7.9500003,33.0,-31.725,0.3529036,-0.0229908,0.19484098,0.91482925,-28.906757,-39.548706,-13.468194,11.05527154,76.92693958,377.3905,0.0,,3.7900925,0.87,2,2
0.960,416968143809591,1.2656536,6.2754765,2.8345976,0.9301179,0.48640102,0.15225804,1.6830068,6.786046,6.8765874,-0.41735315,-0.5105696,-4.04199,8.85,32.625,-33.600002,0.3648778,-0.02243227,0.19731864,0.90948516,-29.778467,-40.908222,-14.155224,11.05527154,76.92693958,377.3905,0.0,,3.7900925,0.89,2,2
0.980,416968163809591,0.8650054,5.97757,5.733053,0.3132209,0.733114,0.056886777,1.6111218,6.8030176,6.877036,-0.7461164,-0.82544756,-1.1439826,8.700001,32.100002,-32.775,0.37276372,-0.018795945,0.20016685,0.905733,-30.39815,-41.891655,-14.255142,11.05527154,76.92693958,377.3905,0.0,,3.7900925,0.91,2,2
1.000,416968183809591,0.92766744,5.9464636,7.5607214,0.21739149,0.41515893,-0.01481347,1.5601633,6.8570256,6.835019,-0.6324958,-0.9105623,0.7257023,8.55,32.175003,-32.325,0.37737194,-0.01444785,0.20256601,0.9033978,-30.765774,-42.530354,-14.058793,11.05527154,76.92693958,377.3905,0.0,,3.7900925,0.93,2,2
1.020,416968203809591,1.6435701,6.2787666,6.774081,0.4021017,0.27007857,-0.12095122,1.463983,6.921873,6.790789,0.179587,-0.64310646,-0.016708136,9.150001,31.425001,-33.825,0.38099244,-0.010469991,0.20404264,0.90162784,-30.968153,-43.059242,-13.807225,11.05527154,76.92693958,377.3905,0.0,,3.7900925,0.95,2,2
1.040,416968223809591,1.5625132,6.2120667,5.291428,0.3658316,0.48220134,-0.26221368,1.3317282,6.9383965,6.8011436,0.23078501,-0.72632957,-1.5097156,10.275001,31.875002,-34.125,0.3844122,-0.0058998386,0.2047192,0.9000782,-31.010012,-43.59738,-13.415824,11.05527154,76.92693958,377.3905,0.0,,3.7900925,0.97,2,2
1.060,416968243809591,0.6426225,6.0577297,5.73425,0.040011644,0.6012436,-0.2962694,1.2419578,6.914434,6.842407,-0.5993353,-0.8567045,-1.1081574,10.35,31.875002,-34.800003,0.38637605,-1.7513923E-4,0.20481926,0.8992405,-30.826006,-44.012733,-12.740113,11.05527154,76.92693958,377.3905,0.0,,3.7900925,0.99,2,2
1.080,416968263809591,0.6387341,6.2880387,6.7350483,-0.17493638,0.43837178,-0.1452331,1.2154001,6.884281,6.87749,-0.576666,-0.5962424,-0.14244199,10.125,32.475002,-33.0,0.3863256,0.005394948,0.20489119,0.89923847,-30.538712,-44.187477,-11.961671,11.05527222,76.92693954,377.40662,0.0,,3.7900925,0.01,2,2
1.100,416968283809591,1.3820046,6.630063,7.3236823,-0.17165299,0.21349722,0.0012980876,1.1954163,6.86472,6.900506,0.18658829,-0.23465705,0.4231763,10.875,32.4,-33.525,0.3851256,0.009455711,0.20528482,0.8996442,-30.322512,-44.173565,-11.346891,11.05527222,76.92693954,377.40662,0.0,,3.7900925,0.03,2,2
1.120,416968303809591,2.1850958,6.446862,7.769495,-0.062537275,0.18982622,-0.07284562,1.1167122,6.8891473,6.889338,1.0683836,-0.44228482,0.88015723,11.625,32.625,-35.925003,0.38373205,0.012199871,0.20574726,0.900115,-30.178938,-44.09309,-10.911016,11.05527222,76.92693954,377.40662,0.0,,3.7900925,0.05,2,2
1.140,416968323809591,2.07697,6.6378393,7.5955667,0.19532399,0.38545564,-0.2962694,0.997456,6.9569917,6.839279,1.079514,-0.31915212,0.7562876,11.175,32.625,-32.775,0.38301033,0.015371029,0.20570426,0.90039057,-29.969234,-44.11027,-10.423083,11.05527222,76.92693954,377.40662,0.0,,3.7900925,0.07,2,2
1.160,416968343809591,1.0156037,6.834799,7.2626653,0.46799874,0.489379,-0.3720166,0.90191865,7.0471425,6.759786,0.11368504,-0.2123437,0.50287914,11.400001,32.25,-33.0,0.38359886,0.01993148,0.20504273,0.900197,-29.65138,-44.331024,-9.773544,11.05527222,76.92693954,377.40662,0.0,,3.7900925,0.09,2,2
1.180,416968363809591,-0.24107687,7.3604717,6.902396,0.6022363,0.2755,-0.2745837,0.8757405,7.1057577,6.7016172,-1.1168174,0.25471425,0.20077872,12.375001,32.175003,-34.575,0.38586423,0.025169998,0.20385791,0.89935476,-29.288261,-44.774624,-9.082096,11.05527222,76.92693954,377.40662,0.0,,3.7900925,0.11,2,2
1.200,416968383809591,0.6387341,6.620641,6.094818,0.39278603,-0.07345648,-0.2346484,0.84281015,7.138249,6.6712418,-0.20407604,-0.5176077,-0.5764234,12.3,31.575,-35.475002,0.38896123,0.029015057,0.20216176,0.89828557,-28.953691,-45.27789,-8.593446,11.05527222,76.92693954,377.40662,0.0,,3.7900925,0.13,2,2
1.220,416968403809591,1.7141583,6.0720863,6.8548384,0.2599993,-0.14034617,-0.46517348,0.74928313,7.2108784,6.603953,0.96487516,-1.1387918,0.25088573,11.775001,32.175003,-33.075,0.39169914,0.031266585,0.19944978,0.897631,-28.530416,-45.698524,-8.241829,11.05527222,76.92693954,377.40662,0.0,,3.7900925,0.15,2,2
1.240,416968423809591,0.7444669,7.4886374,7.6497045,0.51205736,-0.017486002,-0.65721405,0.6726757,7.3392177,6.46945,0.07179119,0.14941978,1.1802545,11.25,31.35,-33.45,0.3946961,0.033805087,0.19532934,0.89712524,-27.87674,-46.169353,-7.7628303,11.05527222,76.92693954,377.40662,0.0,,3.7900925,0.17,2,2
1.260,416968443809591,-0.11306086,8.937193,8.364111,0.93714285,-0.16607885,-0.5726857,0.6671589,7.5226135,6.255843,-0.7802198,1.4145794,2.1082683,11.025001,31.125002,-33.75,0.39955282,0.03682632,0.19020157,0.8959327,-27.105448,-46.882515,-7.2292504,11.05527222,76.92693954,377.40662,0.0,,3.7900925,0.19,2,2
1.280,416968463809591,0.93679005,9.098259,7.75454,1.3962076,-0.49403685,-0.47258022,0.6634423,7.7462144,5.9771557,0.27334774,1.352045,1.7773843,10.8,30.45,-35.625,0.4077494,0.03881279,0.18436259,0.89331967,-26.41092,-47.971542,-6.9504366,11.05527222,76.92693954,377.40662,0.0,,3.7900925,0.21,2,2
1.300,416968483809591,1.1919248,8.417202,6.1030436,1.7422626,-0.564439,-0.5244274,0.63210064,7.9714932,5.6768055,0.55982417,0.44570923,0.4262383,10.200001,29.85,-35.175003,0.4194559,0.039802834,0.17784135,0.88920003,-25.811943,-49.47456,-6.931598,11.05527222,76.92693954,377.40662,0.0,,3.7900925,0.23,2,2
1.320,416968503809591,1.5204892,8.201698,4.641179,1.7980039,-0.35300344,-0.54680026,0.55743194,8.175036,5.387804,0.96305734,0.02666235,-0.7466252,9.150001,27.6,-36.600002,0.43345985,0.041015763,0.17100286,0.8838185,-25.241114,-51.28139,-6.9556913,11.05527222,76.92693954,377.40662,0.0,,3.7900925,0.25,2,2
1.340,416968523809591,1.3613665,9.044122,4.4042892,1.6893464,0.069867656,-0.48548472,0.4550092,8.340122,5.1386495,0.9063573,0.7039995,-0.73436046,9.150001,26.7,-35.850002,0.44806257,0.043753996,0.16485083,0.8775721,-24.68756,-53.21041,-6.8023324,11.05527222,76.92693954,377.40662,0.0,,3.7900925,0.27,2,2
1.360,416968543809591,1.2326028,10.620693,4.3452168,1.3978876,0.5530616,-0.32757622,0.36175755,8.44361,4.9744315,0.8708452,2.1770825,-0.629215,8.85,25.500002,-37.425003,0.4617035,0.048716765,0.16062224,0.8710061,-24.217993,-55.079098,-6.3642597,11.05527222,76.92693954,377.40662,0.0,,3.7900925,0.29,2,2
1.380,416968563809591,0.232702,10.209875,3.220141,0.84772754,0.9411135,0.024816379,0.32329646,8.469296,4.9332423,-0.090594456,1.7405787,-1.7131013,9.450001,24.6,-36.9,0.47260898,0.055595655,0.15949807,0.8647761,-23.964424,-56.630074,-5.6996937,11.05527222,76.92693954,377.40662,0.0,,3.7900925,0.31,2,2
1.400,416968583809591,0.61151576,8.384301,3.4022946,0.20609048,1.3507746,0.5372555,0.30671585,8.445827,4.9743667,0.30479988,-0.061525345,-1.572072,10.425,24.375002,-37.050003,0.47946942,0.06349887,0.16306634,0.8597305,-24.259834,-57.686726,-5.067244,11.05527222,76.92693954,377.40662,0.0,,3.7900925,0.33,2,2
1.420,416968603809591,0.75224364,7.5387373,5.051847,-0.14614938,1.6218458,0.81306094,0.29194957,8.419925,5.0189657,0.46029404,-0.88118744,0.03288126,11.85,24.075,-35.550003,0.48207062,0.07192975,0.17146745,0.8560499,-25.203512,-58.213875,-4.593281,11.05527222,76.92693954,377.40662,0.0,,3.7900925,0.35,2,2
1.440,416968623809591,0.29970104,7.5839014,6.2781687,-0.10415243,1.5683951,0.84062624,0.32018766,8.431406,4.997925,-0.020486623,-0.8475044,1.2802436,13.575001,24.0,-37.050003,0.48183993,0.08066772,0.1828166,0.85313207,-26.544239,-58.390606,-4.216956,11.05527222,76.92693954,377.40662,0.0,,3.7900925,0.37,2,2
1.460,416968643809591,0.5171488,7.3254766,6.6152573,0.2975675,1.1450659,0.8320741,0.37009627,8.496063,4.8836803,0.14705251,-1.1705863,1.7315769,15.225,23.175001,-35.175003,0.48142844,0.0885687,0.1948661,0.84987444,-28.105446,-58.52033,-4.0731554,11.05527222,76.92693954,377.40662,0.0,,3.7900925,0.39,2,2
1.480,416968663809591,0.79501534,7.422536,6.6686473,0.8435278,0.78793913,0.72135484,0.42692247,8.612849,4.6697927,0.36809286,-1.1903133,1.9988546,15.900001,22.650002,-36.075,0.4831468,0.09514692,0.20593952,0.8454519,-29.754839,-58.886326,-4.232323,11.05527222,76.92693954,377.40662,0.0,,3.7900925,0.41,2,2
1.500,416968683809591,0.29312077,8.135149,6.523283,1.3893354,0.44814563,0.5941423,0.5016471,8.769519,4.360536,-0.20852634,-0.6343703,2.1627471,15.750001,20.7,-34.725002,0.4883551,0.10067487,0.21502604,0.8395663,-31.392294,-59.69011,-4.6590524,11.05527222,76.92693954,377.40662,0.0,,3.7900925,0.43,2,2
1.520,416968703809591,0.30299115,8.371738,5.746812,1.8637483,-0.03512472,0.4274526,0.5654813,8.939871,3.991157,-0.26249015,-0.5681324,1.755655,16.650002,19.275002,-35.550003,0.49761772,0.10474824,0.22115149,0.83200127,-32.948402,-60.970215,-5.4185343,11.05527222,76.92693954,377.40662,0.0,,3.7900925,0.45,2,2
1.540,416968723809591,0.47542393,8.536844,4.1385365,2.0751839,-0.38247767,0.18539745,0.6079815,9.086045,3.6393027,-0.13255756,-0.5492015,0.49923372,16.125,17.550001,-36.375,0.51056474,0.10742851,0.22376755,0.82317984,-34.35223,-62.70425,-6.465796,11.05527222,76.92693954,377.40662,0.0,,3.7900925,0.47,2,2
1.560,416968743809591,0.34920254,9.14821,2.70045,1.8587086,-0.46937317,0.05314523,0.6604648,9.181836,3.3805408,-0.31126228,-0.033626556,-0.6800909,15.900001,15.150001,-37.2,0.52534944,0.1091335,0.2233938,0.8137358,-35.557484,-64.655556,-7.667427,11.05527222,76.92693954,377.40662,0.0,,3.7900925,0.49,2,2
1.580,416968763809591,0.557079,8.863613,1.9115663,1.3082432,-0.35498875,0.1528689,0.7105173,9.228456,3.2405474,-0.15343827,-0.3648424,-1.3289812,16.2,14.250001,-38.775,0.53930867,0.10989176,0.22191283,0.8048703,-36.736618,-66.47986,-9.005128,11.05527222,76.92693954,377.40662,0.0,,3.7900925,0.51,2,2
1.600,416968783809591,0.7106683,8.199605,2.7861428,0.74181885,-0.15233439,0.21090105,0.7432568,9.258143,3.1471803,-0.032588482,-1.0585384,-0.3610375,15.6,13.425,-38.925003,0.5505012,0.10992806,0.22086795,0.7973964,-37.962524,-67.89482,-10.400869,11.05527222,76.92693954,377.40662,0.0,,3.7900925,0.53,2,2
1.620,416968803809591,0.7441678,9.304491,3.228217,0.5103011,0.035048366,0.18883356,0.7794486,9.291666,3.0377252,-0.035280794,0.012824535,0.19049168,15.825001,12.6,-38.475002,0.5588436,0.10997917,0.22063258,0.7916131,-39.15457,-68.95615,-11.660409,11.05527222,76.92693954,377.40662,0.0,,3.7900925,0.55,2,2
1.640,416968823809591,0.7126125,9.221191,3.7120156,0.6511054,0.27412555,0.29069525,0.8292796,9.333288,2.8935118,-0.11666711,-0.11209726,0.818504,15.6,11.400001,-36.75,0.5653159,0.11071813,0.22168662,0.78662175,-40.417904,-69.79601,-12.808031,11.05527222,76.92693954,377.40662,0.0,,3.7900925,0.57,2,2
1.660,416968843809591,0.7788638,8.672487,2.8846974,0.81031203,0.31314453,0.36644247,0.86365557,9.371192,2.7577617,-0.08479181,-0.6987052,0.1269356,16.2,10.35,-37.275,0.5714216,0.112044044,0.22396055,0.7813672,-41.98309,-70.590416,-14.102405,11.05527222,76.92693954,377.40662,0.0,,3.7900925,0.59,2,2
1.680,416968863809591,1.2921243,8.307581,2.7822547,0.75586873,0.14798197,0.19631664,0.85033864,9.407064,2.6371298,0.44178563,-1.0994835,0.1451248,15.750001,9.75,-36.675003,0.5774907,0.11339086,0.22629748,0.77602327,-43.6877,-71.372025,-15.527923,11.05527222,76.92693954,377.40662,0.0,,3.7900925,0.61,2,2
1.700,416968883809591,1.338186,8.773434,2.5909781,0.6414843,-0.06566796,-0.1222493,0.78596514,9.442035,2.5299473,0.5522209,-0.66860104,0.061030984,15.750001,9.375,-36.75,0.5831105,0.11466237,0.22717346,0.77138066,-45.000538,-72.1191,-16.687965,11.05527222,76.92693954,377.40662,0.0,,3.7900925,0.63,2,2
1.720,416968903809591,1.5545869,9.370294,2.3114667,0.55848306,0.04321868,-0.3755291,0.66690415,9.477186,2.4307547,0.8876828,-0.106892586,-0.11928797,16.35,8.85,-36.75,0.5881807,0.11659069,0.22644034,0.76746565,-45.672325,-72.866066,-17.286306,11.05527222,76.92693954,377.40662,0.0,,3.7900925,0.65,2,2
1.740,416968923809591,0.9578768,9.438489,1.9117157,0.5077049,0.17631084,-0.5991056,0.5400115,9.505945,2.3485703,0.41786528,-0.067456245,-0.4368546,15.525001,8.25,-36.0,0.5925057,0.12011929,0.22434057,0.76421344,-45.47949,-73.63715,-17.00115,11.05527222,76.92693954,377.40662,0.0,,3.7900925,0.67,2,2
1.760,416968943809591,0.6723832,9.772437,2.5840988,0.4438696,0.040469788,-0.6630173,0.436444,9.533143,2.2581193,0.23593915,0.23929405,0.3259796,16.050001,7.65,-37.425003,0.5960816,0.12457993,0.2208933,0.76171994,-44.4286,-74.39355,-15.892353,11.05527222,76.92693954,377.40662,0.0,,3.7900925,0.69,2,2
1.780,416968963809591,0.16989042,10.992477,2.7139096,0.47471824,-0.09964731,-0.54725844,0.3969217,9.55753,2.1601975,-0.22703128,1.434947,0.553712,15.000001,7.8750005,-36.225002,0.59931546,0.12898175,0.21638773,0.7597385,-42.817993,-75.120094,-14.316384,11.05527222,76.92693954,377.40662,0.0,,3.7900925,0.71,2,2
1.800,416968983809591,-0.18678972,10.800005,2.1924238,0.49166974,-0.1530216,-0.20609048,0.42501897,9.572328,2.0881279,-0.61180866,1.2276773,0.10429591,15.675,7.65,-37.425003,0.602742,0.13246982,0.21204583,0.7576542,-41.376736,-75.8173,-12.969772,11.05527222,76.92693954,377.40662,0.0,,3.7900925,0.73,2,2
1.820,416969003809591,0.59237313,9.532706,1.0782657,0.314519,-0.17768528,0.09682205,0.45804903,9.572662,2.0795934,0.13432413,-0.039956093,-1.0013278,15.150001,7.5000005,-36.75,0.60624564,0.13409436,0.20899625,0.7554357,-40.781654,-76.41185,-12.51083,11.05527222,76.92693954,377.40662,0.0,,3.7900925,0.75,2,2
1.840,416969023809591,1.0115657,8.872437,0.16136599,-0.046731148,0.05871937,0.15134174,0.4380722,9.552488,2.1744976,0.57349354,-0.6800513,-2.0131316,14.55,7.1250005,-35.325,0.60865027,0.13458462,0.20774645,0.75378454,-40.84348,-76.78053,-12.643657,11.05527222,76.92693954,377.40662,0.0,,3.7900925,0.77,2,2
1.860,416969043809591,0.7959126,9.722338,2.3956642,-0.4705949,0.31398445,-0.05360338,0.35365245,9.546082,2.2175775,0.4422602,0.1762557,0.1780867,14.85,7.05,-35.4,0.60854876,0.13536216,0.20809115,0.7536546,-40.763798,-76.806915,-12.466936,11.05527222,76.92693954,377.40662,0.0,,3.7900925,0.79,2,2
1.880,416969063809591,0.42517468,9.77453,2.1083758,-0.22617266,0.17440188,-0.404087,0.2700779,9.545018,2.2338462,0.15509677,0.22951269,-0.1254704,15.000001,7.5750003,-34.425003,0.6070458,0.13708812,0.20790277,0.7546144,-39.84685,-76.698555,-11.416165,11.05527222,76.92693954,377.40662,0.0,,3.7900925,0.81,2,2
1.900,416969083809591,-0.07043871,10.910225,2.1326032,-0.10781762,-0.03520108,-0.42455098,0.23729874,9.539041,2.2629116,-0.30773747,1.3711839,-0.13030833,14.700001,7.65,-34.050003,0.60551405,0.1392801,0.20634241,0.75587153,-38.277485,-76.620926,-9.79128,11.05527222,76.92693954,377.40662,0.0,,3.7900925,0.83,2,2
1.920,416969103809591,-0.33349967,9.713963,1.0272686,-0.22105667,-0.18539745,-0.18471022,0.2428017,9.52047,2.339249,-0.57630134,0.19349289,-1.3119802,14.85,8.400001,-34.95,0.6043091,0.14065583,0.20427506,0.7571436,-36.81245,-76.54734,-8.381951,11.05527222,76.92693954,377.40662,0.0,,3.7900925,0.85,2,2
1.940,416969123809591,-0.14910276,10.413713,2.0684457,-0.435852,-0.4815141,-0.06589703,0.27322653,9.487828,2.4651282,-0.4223293,0.9258857,-0.3966825,14.325001,8.400001,-34.800003,0.602664,0.14009468,0.20181923,0.7592118,-35.606953,-76.32365,-7.424031,11.05527222,76.92693954,377.40662,0.0,,3.7900925,0.87,2,2
1.960,416969143809591,-0.06774679,10.444372,2.3892334,-0.69096434,-0.54504406,0.04130973,0.33089048,9.454046,2.5849373,-0.39863726,0.99032545,-0.19570398,13.35,8.775001,-33.300003,0.6001767,0.13756968,0.19929156,0.76229024,-34.72305,-75.894966,-6.95426,11.05527222,76.92693954,377.40662,0.0,,3.7900925,0.89,2,2
1.980,416969163809591,0.33349964,10.594671,3.0885358,-0.6376664,-0.5122101,0.16882774,0.40918347,9.43495,2.6428542,-0.07568383,1.1597209,0.44568157,13.275001,9.225,-34.425003,0.5968897,0.13352096,0.19734453,0.76606584,-34.302616,-75.28761,-7.022021,11.05527222,76.92693954,377.40662,0.0,,3.7900925,0.91,2,2
2.000,416969183809591,0.9297612,9.587292,3.0391839,-0.30527964,-0.41004294,0.2735147,0.46042588,9.437869,2.6239305,0.4693353,0.14942312,0.4152534,13.8,9.3,-34.65,0.5941759,0.12853646,0.19636796,0.769262,-34.567284,-74.716805,-7.770561,11.05527222,76.92693954,377.40662,0.0,,3.7900925,0.93,2,2
2.020,416969203809591,1.1519946,9.529716,3.0710382,0.11049016,-0.19669843,0.18104503,0.4691411,9.465851,2.5195148,0.68285346,0.06386471,0.55152345,12.225,9.6,-33.600002,0.5929661,0.12411492,0.19606137,0.77100855,-35.20245,-74.37224,-8.790172,11.05527222,76.92693954,377.40662,0.0,,3.7900925,0.95,2,2
2.040,416969223809591,0.8679964,10.039686,2.8724341,0.5636754,0.07658716,0.04818196,0.45598766,9.509376,2.352494,0.41200873,0.53031015,0.51994,13.200001,9.3,-34.5,0.59386396,0.12168356,0.19614702,0.77070284,-35.938637,-74.39116,-9.7214,11.05527222,76.92693954,377.40662,0.0,,3.7900925,0.97,2,2
2.060,416969243809591,0.85378903,9.921539,2.380709,0.88163054,0.15416698,-0.04833467,0.42485815,9.554499,2.1682804,0.42893088,0.3670411,0.21242857,12.975,8.775001,-35.025,0.5971621,0.1214051,0.19618036,0.76818734,-36.702366,-74.81812,-10.519045,11.05527222,76.92693954,377.40662,0.0,,3.7900925,0.99,2,2
2.080,416969263809591,0.7980063,9.532856,1.6993527,0.9523381,0.22128576,-0.12919788,0.3884681,9.588551,2.0197005,0.40953824,-0.05569458,-0.3203478,13.35,8.475,-35.4,0.6021565,0.122953534,0.19589348,0.7640828,-37.37258,-75.550156,-11.1088085,11.05527231,76.92693981,377.39337,0.0,,3.7900925,0.01,2,2
2.100,416969283809591,0.12607184,9.636196,1.4507983,0.7628173,0.35743222,-0.09918916,0.34752613,9.608709,1.929328,-0.22145429,0.027486324,-0.4785297,13.200001,7.8750005,-35.100002,0.6074935,0.12600957,0.19569251,0.7593723,-37.870228,-76.396286,-11.395661,11.05527231,76.92693981,377.39337,0.0,,3.7900925,0.03,2,2
2.120,416969303809591,0.15972091,10.341032,1.9941186,0.48403394,0.4686096,-0.1062141,0.29585823,9.621002,1.875945,-0.13613732,0.72002935,0.1181736,14.775001,7.7250004,-38.100002,0.6119383,0.13009702,0.19601046,0.7550096,-38.130272,-77.171585,-11.310208,11.05527231,76.92693981,377.39337,0.0,,3.7900925,0.05,2,2
2.140,416969323809591,-0.27263224,9.898359,1.739283,0.28535017,0.50579596,-0.14080432,0.26891533,9.6268015,1.8500713,-0.54154754,0.27155828,-0.110788345,14.775001,7.7250004,-38.100002,0.6150127,0.13497728,0.19666773,0.7514782,-37.943695,-77.80345,-10.676749,11.05527231,76.92693981,377.39337,0.0,,3.7900925,0.07,2,2
2.160,416969343809591,-0.08150552,9.393025,2.092972,0.1623373,0.5140426,-0.024129156,0.2585809,9.632416,1.8221096,-0.3400864,-0.23939037,0.27086246,14.175,7.275,-36.075,0.6167522,0.13987209,0.19798578,0.74881715,-37.62605,-78.25258,-9.8486395,11.05527231,76.92693981,377.39337,0.0,,3.7900925,0.09,2,2
2.180,416969363809591,-0.4616652,9.3104725,2.3192434,0.1845575,0.5282453,0.08032871,0.28063378,9.640708,1.7743629,-0.742299,-0.330235,0.5448804,14.400001,7.3500004,-34.875,0.617693,0.14451297,0.20009698,0.7466054,-37.480545,-78.57333,-9.143478,11.05527231,76.92693981,377.39337,0.0,,3.7900925,0.11,2,2
2.200,416969383809591,-0.24332015,9.066704,2.8552356,0.31261003,0.44700027,0.22120939,0.31200466,9.6573925,1.6756521,-0.5553248,-0.5906887,1.1795835,14.625001,7.05,-36.0,0.61864823,0.14843015,0.2029603,0.7442763,-37.902184,-78.855034,-9.001759,11.05527231,76.92693981,377.39337,0.0,,3.7900925,0.13,2,2
2.220,416969403809591,0.1646561,8.453842,2.7692437,0.5762745,0.26923862,0.21586433,0.3257479,9.683275,1.5160649,-0.1610918,-1.2294331,1.2531787,14.55,6.675,-34.65,0.62053025,0.15148275,0.20581488,0.74130833,-38.902874,-79.223274,-9.514679,11.05527231,76.92693981,377.39337,0.0,,3.7900925,0.15,2,2
2.240,416969423809591,0.26440692,8.757582,2.6068306,0.8807142,0.08559742,0.08712458,0.3161156,9.713196,1.3131192,-0.051708683,-0.9556141,1.2937115,16.125,6.6000004,-37.575,0.624003,0.15397726,0.20763643,0.7373559,-40.185898,-79.79078,-10.450069,11.05527231,76.92693981,377.39337,0.0,,3.7900925,0.17,2,2
2.260,416969443809591,0.09376874,9.210274,1.9151554,1.0661881,-0.21952951,-0.07147117,0.28340238,9.740131,1.1044984,-0.18963364,-0.5298581,0.8106571,15.375001,5.775,-36.225002,0.6291828,0.15599772,0.20740637,0.7325605,-41.352238,-80.58832,-11.489345,11.05527231,76.92693981,377.39337,0.0,,3.7900925,0.19,2,2
2.280,416969463809591,0.34830523,9.130413,1.1509477,1.0561851,-0.61956954,-0.24762928,0.22017954,9.761558,0.91318965,0.1281257,-0.6311445,0.23775807,14.55,3.9,-35.775,0.63572526,0.15699373,0.20437126,0.72750205,-42.103138,-81.55327,-12.442191,11.05527231,76.92693981,377.39337,0.0,,3.7900925,0.21,2,2
2.300,416969483809591,-0.44835514,10.122088,0.83359957,0.9527199,-0.8242856,-0.37888885,0.22003108,9.774015,0.7685056,-0.6683862,0.348073,0.065093994,13.425,3.45,-35.625,0.6428751,0.15694776,0.19857772,0.72277427,-42.03965,-82.58603,-12.904263,11.05527231,76.92693981,377.39337,0.0,,3.7900925,0.23,2,2
2.320,416969503809591,-0.010019945,10.14168,-0.18260227,0.6758455,-0.9626464,-0.07292198,0.25411204,9.777966,0.70512664,-0.264132,0.36371422,-0.8877289,13.275001,3.075,-36.45,0.6500501,0.15517667,0.1915596,0.71858424,-42.075115,-83.556335,-13.709384,11.05527231,76.92693981,377.39337,0.0,,3.7900925,0.25,2,2
2.340,416969523809591,0.91884387,9.278469,0.42846483,0.28848088,-1.0294597,0.06780598,0.25293925,9.779474,0.6843218,0.66590464,-0.50100565,-0.255857,11.625,3.3750002,-35.550003,0.6562228,0.15099455,0.18466859,0.715651,-43.15877,-84.280045,-15.738154,11.05527231,76.92693981,377.39337,0.0,,3.7900925,0.27,2,2
2.360,416969543809591,2.0035403,9.38839,-0.11829517,0.054137886,-0.7312051,-0.13271037,0.14746535,9.782076,0.6779491,1.856075,-0.3936863,-0.79624426,11.55,3.075,-36.075,0.6607185,0.14615011,0.17827664,0.71415675,-44.160107,-84.76161,-17.679705,11.05527231,76.92693981,377.39337,0.0,,3.7900925,0.29,2,2
2.380,416969563809591,1.5390337,9.572786,0.6801598,0.03558287,0.15218167,-0.5861247,-0.006576048,9.785098,0.64975995,1.5456096,-0.21231174,0.030399889,11.400001,3.45,-35.175003,0.663141,0.14449036,0.17324498,0.71354395,-42.602425,-85.15374,-16.66675,11.05527231,76.92693981,377.39337,0.0,,3.7900925,0.31,2,2
2.400,416969583809591,0.907478,9.270244,-0.12442678,0.11820233,0.90583605,-0.7625119,-0.13626382,9.785595,0.6276501,1.0437418,-0.5153513,-0.75207686,11.625,2.9250002,-35.325,0.6639515,0.14796974,0.17029192,0.7128282,-37.493557,-85.533356,-11.5077095,11.05527231,76.92693981,377.39337,0.0,,3.7900925,0.33,2,2
2.420,416969603809591,-1.048505,10.052996,2.793172,0.18898627,1.5890882,-0.52167845,-0.19764178,9.79047,0.52728873,-0.85086316,0.26252556,2.265883,12.375001,3.2250001,-35.550003,0.66348463,0.15646036,0.17086108,0.7112849,-30.08146,-85.80362,-3.3646095,11.05527231,76.92693981,377.39337,0.0,,3.7900925,0.35,2,2
2.440,416969623809591,-1.1086247,9.634102,-0.8385348,0.43149957,1.4122429,-0.19135338,-0.21477322,9.794247,0.4438238,-0.89385146,-0.16014433,-1.2823586,13.725,2.8500001,-34.425003,0.6631172,0.16693819,0.17427014,0.70834875,-23.081625,-86.04715,4.743142,11.05527231,76.92693981,377.39337,0.0,,3.7900925,0.37,2,2
2.460,416969643809591,-0.9269197,9.433554,0.45717865,0.39874196,1.315039,0.0067958683,-0.19164087,9.796532,0.4020355,-0.7352788,-0.36297798,0.055143163,15.000001,2.1750002,-32.850002,0.6631012,0.17757164,0.17939103,0.70443124,-17.046303,-86.31092,12.035039,11.05527231,76.92693981,377.39337,0.0,,3.7900925,0.39,2,2
2.480,416969663809591,-1.0217352,9.620941,2.070988,0.25839576,1.0623701,0.19700387,-0.11891628,9.799043,0.3674349,-0.902819,-0.17810106,1.7035531,15.000001,1.8000001,-33.15,0.66296995,0.18686971,0.18575019,0.7004704,-13.477472,-86.565384,16.873419,11.05527231,76.92693981,377.39337,0.0,,3.7900925,0.41,2,2
2.500,416969683809591,-0.32766715,10.509726,0.42457646,0.1692859,0.4902953,0.39759657,-0.02334726,9.799032,0.3857736,-0.3043199,0.71069336,0.038802862,16.050001,1.5,-32.7,0.6631847,0.19314808,0.19200668,0.69690496,-13.776197,-86.8875,17.627386,11.05527231,76.92693981,377.39337,0.0,,3.7900925,0.43,2,2
2.520,416969703809591,-0.49636117,10.337442,0.309721,-0.09720385,-0.05635227,0.50312346,0.07534635,9.796,0.45065963,-0.5717075,0.5414429,-0.14093865,16.050001,1.4250001,-33.75,0.6635614,0.19563377,0.19698311,0.6945315,-18.52047,-87.19481,13.556759,11.05527231,76.92693981,377.39337,0.0,,3.7900925,0.45,2,2
2.540,416969723809591,0.1061815,9.530762,1.4271691,-0.29344416,-0.5916988,0.4762454,0.13987236,9.792884,0.5002408,-0.03369085,-0.26212168,0.9269283,16.425001,1.35,-33.825,0.66368115,0.19386744,0.20010811,0.69407994,-27.68961,-87.293396,4.5637827,11.05527231,76.92693981,377.39337,0.0,,3.7900925,0.47,2,2
2.560,416969743809591,0.5413761,9.992577,0.40947175,-0.27068943,-1.2074504,0.25404337,0.13712065,9.790499,0.5456248,0.40425545,0.20207834,-0.13615304,16.050001,1.2,-34.575,0.66404885,0.18837291,0.20001866,0.6952811,-36.30046,-87.14343,-4.4909077,11.05527231,76.92693981,377.39337,0.0,,3.7900925,0.49,2,2
2.580,416969763809591,0.28564322,10.249805,-0.36251265,-0.28496838,-1.201189,-0.08330667,0.115446195,9.789291,0.57170254,0.17019701,0.46051407,-0.9342152,15.525001,1.575,-35.7,0.664567,0.18127649,0.19653594,0.6976371,-40.152596,-86.86955,-9.23875,11.05527231,76.92693981,377.39337,0.0,,3.7900925,0.51,2,2
2.600,416969783809591,0.5759225,9.342926,0.79860455,-0.13874266,-1.1997383,-0.19761473,0.094550714,9.791453,0.53747606,0.48137182,-0.4485278,0.2611285,15.3,1.725,-37.125,0.66505975,0.17387679,0.19084911,0.7005843,-40.342785,-86.58981,-10.542077,11.05527231,76.92693981,377.39337,0.0,,3.7900925,0.53,2,2
2.620,416969803809591,0.47228336,9.25484,0.66490555,0.16806415,-1.1530836,-0.18707731,0.059585948,9.796631,0.43916163,0.4126974,-0.54179096,0.22574395,13.650001,1.8000001,-36.75,0.6664788,0.16652815,0.18377456,0.702873,-39.53123,-86.47419,-10.954003,11.05527231,76.92693981,377.39337,0.0,,3.7900925,0.55,2,2
2.640,416969823809591,0.48933226,9.669994,0.5602196,0.49686208,-1.0887899,-0.24946189,-0.0056868484,9.8023815,0.28929287,0.49501908,-0.13238668,0.2709267,13.05,1.5,-37.350002,0.6692167,0.15977629,0.17573674,0.70386666,-38.259647,-86.59608,-10.938279,11.05527231,76.92693981,377.39337,0.0,,3.7900925,0.57,2,2
2.660,416969843809591,0.39601216,9.799356,0.02198406,0.7504473,-0.86765695,-0.38041598,-0.074422814,9.805542,0.12722999,0.47043496,-0.0061855316,-0.10524593,12.225,1.2750001,-36.300003,0.673506,0.1545546,0.16706434,0.70303476,-35.86319,-87.0086,-9.737479,11.05527231,76.92693981,377.39337,0.0,,3.7900925,0.59,2,2
2.680,416969863809591,0.1797608,9.659676,-0.7449156,0.794735,-0.59765476,-0.3726275,-0.1143685,9.805975,-0.013015118,0.2941293,-0.14629984,-0.7319005,12.375001,1.4250001,-37.65,0.67873347,0.15126571,0.15853176,0.7006902,-30.664158,-87.6024,-5.594794,11.05527231,76.92693981,377.39337,0.0,,3.7900925,0.61,2,2
2.700,416969883809591,-0.11380863,9.93829,-1.1555837,0.67340195,-0.22685988,-0.2053269,-0.10034333,9.805324,-0.12626252,-0.0134652965,0.13296604,-1.0293212,12.075001,0.22500001,-37.875,0.6840315,0.14970349,0.15154763,0.69743437,-19.822771,-88.20354,4.396578,11.05527231,76.92693981,377.39337,0.0,,3.7900925,0.63,2,2
2.720,416969903809591,-0.49860442,10.480413,-0.9085249,0.5459603,0.16592613,0.08422297,-0.025721153,9.804082,-0.22297937,-0.47288325,0.676332,-0.6855455,12.6,0.6,-38.475002,0.68884754,0.1494892,0.14748026,0.69364804,10.2471695,-88.66587,33.77556,11.05527231,76.92693981,377.39337,0.0,,3.7900925,0.65,2,2
2.740,416969923809591,-0.83524466,10.102497,-0.5872884,0.477009,0.33040145,0.40339977,0.102137886,9.800624,-0.32822624,-0.9373825,0.30187368,-0.25906217,11.700001,-0.675,-35.7,0.6931326,0.1497596,0.14662023,0.68953365,125.52461,-88.83148,150.21994,11.05527231,76.92693981,377.39337,0.0,,3.7900925,0.67,2,2
2.760,416969943809591,-1.3909776,9.859776,0.2551347,0.55741405,0.20288345,0.69989824,0.26483482,9.790024,-0.5056503,-1.6558125,0.06975174,0.760785,12.075001,-1.4250001,-36.75,0.6972902,0.14927404,0.14826502,0.6851011,162.9681,-88.57976,-172.51738,11.05527231,76.92693981,377.39337,0.0,,3.7900925,0.69,2,2
2.780,416969963809591,0.35473597,9.06835,0.7030412,0.9403499,-0.28725913,0.83757186,0.37573892,9.768276,-0.78101695,-0.021002963,-0.69992685,1.4840581,12.225,-2.1000001,-36.225002,0.7026239,0.146448,0.15051259,0.67973113,177.93216,-87.81842,-157.6861,11.05527231,76.92693981,377.39337,0.0,,3.7900925,0.71,2,2
2.800,416969983809591,0.98853487,9.001201,0.123379916,1.4197259,-0.4733438,0.5744419,0.42022967,9.735819,-1.0989151,0.5683052,-0.7346182,1.222295,10.950001,-3.15,-34.050003,0.7100953,0.14230175,0.15166116,0.6724879,-178.01813,-86.58505,-153.89523,11.05527231,76.92693981,377.39337,0.0,,3.7900925,0.73,2,2
2.820,416970003809591,1.1189437,9.044271,-0.4272684,1.6168826,-0.7611374,0.2756527,0.41107094,9.695408,-1.414382,0.70787275,-0.6511364,0.9871136,10.275001,-4.5750003,-34.5,0.719527,0.13779572,0.15033232,0.6637054,-179.10674,-85.23116,-155.52048,11.05527231,76.92693981,377.39337,0.0,,3.7900925,0.75,2,2
2.840,416970023809591,1.0926226,9.703644,-1.1886346,1.5928297,-0.8363502,0.03688096,0.36022887,9.651345,-1.7006352,0.7323938,0.052298546,0.51200056,10.35,-5.7000003,-35.475002,0.7300439,0.13342907,0.14647394,0.65400183,178.30028,-83.714066,-158.8214,11.05527231,76.92693981,377.39337,0.0,,3.7900925,0.77,2,2
2.860,416970043809591,1.4612669,9.62842,-1.7854943,1.4489712,-0.6239983,-0.20181443,0.2845933,9.610024,-1.9330859,1.1766735,0.018394947,0.14759153,9.525001,-7.1250005,-33.9,0.7404998,0.13021362,0.14105959,0.6440403,175.32925,-82.12074,-162.49667,11.05527231,76.92693981,377.39337,0.0,,3.7900925,0.79,2,2
2.880,416970063809591,0.7802097,9.5020485,-2.4662523,1.1764491,-0.27901247,-0.35750857,0.25036728,9.581905,-2.072387,0.52984244,-0.07985735,-0.39386547,9.3,-7.3500004,-34.95,0.74982756,0.12916957,0.13532028,0.63440764,172.21935,-80.5228,-166.1079,11.05527231,76.92693981,377.39337,0.0,,3.7900925,0.81,2,2
2.900,416970083809591,-0.0019441694,9.677322,-2.7568307,0.70188355,-0.008857539,-0.16737694,0.29148892,9.571835,-2.1131508,-0.29343307,0.10548782,-0.64368,9.75,-8.25,-35.550003,0.75732696,0.12968281,0.13073345,0.62625736,169.78064,-79.25631,-168.8604,11.05527231,76.92693981,377.39337,0.0,,3.7900925,0.83,2,2
2.920,416970103809591,0.045014977,9.850952,-2.722733,0.19433133,0.009392045,0.22128573,0.3801213,9.573803,-2.0900247,-0.3351063,0.2771492,-0.63270843,8.925,-8.775001,-34.350002,0.7625454,0.12984447,0.12827961,0.6204244,168.78108,-78.383224,-170.04453,11.05527231,76.92693981,377.39337,0.0,,3.7900925,0.85,2,2
2.940,416970123809591,0.40947175,9.737592,-2.2879872,-0.12652536,-0.018478658,0.46540254,0.47137085,9.575115,-2.0652752,-0.06189908,0.16247654,-0.22271192,9.075001,-8.775001,-34.050003,0.7656126,0.12839328,0.12802428,0.617068,169.34195,-77.889534,-169.62686,11.05527231,76.92693981,377.39337,0.0,,3.7900925,0.87,2,2
2.960,416970143809591,0.43683967,9.703644,-1.8903298,-0.1222493,0.0036651883,0.4762454,0.5491445,9.570358,-2.0681067,-0.11230484,0.13328552,0.17777675,8.925,-8.625,-34.275,0.7672124,0.12576166,0.12941656,0.6153821,170.91655,-77.63648,-168.15701,11.05527231,76.92693981,377.39337,0.0,,3.7900925,0.89,2,2
2.980,416970163809591,0.07836494,9.732059,-1.7979071,0.011530072,-0.24052799,0.47380194,0.6105313,9.558055,-2.1074219,-0.53216636,0.1740036,0.30951476,8.475,-8.775001,-33.825,0.7682707,0.122354366,0.13076636,0.6144906,172.75461,-77.47195,-166.48993,11.05527231,76.92693981,377.39337,0.0,,3.7900925,0.91,2,2
3.000,416970183809591,0.8641081,9.50818,-1.9730318,0.17150027,-0.61880594,0.44661847,0.64879555,9.536855,-2.1904032,0.21531257,-0.02867508,0.2173714,8.85,-9.375,-35.175003,0.76968896,0.11740489,0.13098425,0.6136367,174.79163,-77.258514,-164.84125,11.05527231,76.92693981,377.39337,0.0,,3.7900925,0.93,2,2
3.020,416970203809591,1.4134104,10.170394,-2.5290642,0.37965244,-0.7313578,0.3396408,0.7000827,9.50142,-2.3244998,0.7133277,0.6689739,-0.20456421,8.400001,-9.075001,-34.875,0.77198756,0.111445285,0.12968561,0.6121171,176.62479,-76.90589,-163.60063,11.05527231,76.92693981,377.39337,0.0,,3.7900925,0.95,2,2
3.040,416970223809591,1.6235301,9.9848,-2.8902307,0.66935503,-0.28428116,0.3055851,0.76695406,9.455049,-2.4868119,0.85657614,0.5297513,-0.40341878,7.8750005,-9.900001,-35.25,0.7753767,0.1061296,0.12832806,0.60904044,177.9883,-76.339035,-162.77708,11.05527231,76.92693981,377.39337,0.0,,3.7900925,0.97,2,2
3.060,416970243809591,0.78095746,9.817303,-2.439034,0.87598,0.21380264,0.29779655,0.83871436,9.40413,-2.6512773,-0.05775687,0.41317272,0.2122432,7.7250004,-10.725,-34.425003,0.77976507,0.10259846,0.12877338,0.60391116,178.9725,-75.5215,-162.03055,,,,,,,,2,2
3.080,416970263809591,0.28459632,9.342029,-2.754139,0.9006437,0.40095633,0.2890917,0.940466,9.355293,-2.7864666,-0.65586966,-0.013264656,0.032327652,7.3500004,-11.325001,-33.9,0.7843486,0.102388375,0.12904255,0.5979139,178.63068,-74.65954,-162.34827,11.05527228,76.92693993,377.38232,0.0,,3.7900925,0.01,2,2
3.100,416970283809591,0.7139585,9.637542,-3.3686457,0.7596866,0.5884918,0.37942335,1.0567766,9.314531,-2.8797781,-0.34281817,0.32301044,-0.4888674,7.9500003,-12.225,-34.5,0.7896787,0.10344083,0.13072325,0.5902603,178.158,-73.592354,-162.56596,11.05527228,76.92693993,377.38232,0.0,,3.7900925,0.03,2,2
3.120,416970303809591,0.81475616,9.505189,-3.2165518,0.58749914,0.90721047,0.3552942,1.1719006,9.278022,-2.9521782,-0.3571445,0.22716713,-0.26437366,8.775001,-12.6,-34.350002,0.7947112,0.105796374,0.13437414,0.5821688,177.7613,-72.505295,-162.43227,11.05527228,76.92693993,377.38232,0.0,,3.7900925,0.05,2,2
3.140,416970323809591,0.9170493,8.618498,-2.961866,0.5112174,1.077718,0.2860374,1.2795545,9.242636,-3.017749,-0.36250523,-0.6241374,0.05588329,9.225,-12.750001,-32.550003,0.7991182,0.10937278,0.13998602,0.5740483,177.45067,-71.45718,-161.944,11.05527228,76.92693993,377.38232,0.0,,3.7900925,0.07,2,2
3.160,416970343809591,0.6680462,8.82144,-2.7095726,0.49365503,1.0246493,0.2683987,1.3609102,9.211185,-3.0777237,-0.692864,-0.3897457,0.3681512,9.450001,-13.500001,-32.625,0.80190295,0.113877095,0.14659823,0.5675953,177.17827,-70.6827,-161.26283,11.05527228,76.92693993,377.38232,0.0,,3.7900925,0.09,2,2
3.180,416970363809591,0.33110684,8.850004,-2.4351459,0.42233658,0.58398664,0.27924153,1.4062881,9.189189,-3.1227477,-1.0751814,-0.33918476,0.6876019,10.5,-14.175,-33.45,0.803627,0.11805087,0.15250948,0.562763,176.93872,-70.13752,-160.642,11.05527228,76.92693993,377.38232,0.0,,3.7900925,0.11,2,2
3.200,416970383809591,0.639781,8.145766,-2.4632614,0.24129157,-0.074067354,0.29107705,1.419968,9.178522,-3.147826,-0.780187,-1.0327559,0.6845646,10.200001,-14.175,-33.15,0.8048739,0.12026163,0.15594348,0.5596424,176.83362,-69.7831,-160.26717,11.05527228,76.92693993,377.38232,0.0,,3.7900925,0.13,2,2
3.220,416970403809591,1.4273188,8.541629,-2.3929722,0.07452549,-0.5063305,0.24320051,1.4009886,9.198783,-3.0967748,0.026330173,-0.6571541,0.7038026,9.3,-13.950001,-32.100002,0.80576426,0.11944848,0.15728502,0.5582282,177.22081,-69.582504,-159.83394,11.05527228,76.92693993,377.38232,0.0,,3.7900925,0.15,2,2
3.240,416970423809591,1.8237795,8.906834,-3.7507496,-0.40927935,-0.7200568,0.12866339,1.3507563,9.246234,-2.975397,0.47302318,-0.3394003,-0.77535236,9.375,-14.55,-32.850002,0.8064189,0.11631497,0.15643808,0.5582144,177.87921,-69.50481,-159.50969,11.05527228,76.92693993,377.38232,0.0,,3.7900925,0.17,2,2
3.260,416970443809591,1.9317557,8.609226,-2.2802105,-0.7486147,-0.71616256,-0.058643013,1.2676059,9.284218,-2.8925514,0.66414976,-0.6749916,0.61234105,9.6,-13.35,-36.75,0.8032696,0.10742346,0.1510979,0.565915,179.73361,-70.326706,-158.8737,11.05527228,76.92693993,377.38232,0.0,,3.7900925,0.19,2,2
3.280,416970463809591,1.4991033,9.36491,-2.8329525,-0.5496255,-0.7489965,-0.21823142,1.1940129,9.321573,-2.8023193,0.3050905,0.04333639,-0.030633092,9.6,-13.35,-36.75,0.8032696,0.10742346,0.1510979,0.565915,179.73361,-70.326706,-158.8737,11.05527228,76.92693993,377.38232,0.0,,3.7900925,0.21,2,2
3.300,416970483809591,1.3574781,9.776176,-3.3821054,-0.59643304,-0.75289077,-0.16699514,1.1661307,9.358636,-2.6882093,0.19134754,0.41754007,-0.69389594,8.400001,-13.200001,-35.775,0.8012077,0.1032205,0.1464478,0.57079226,-179.68782,-70.887794,-159.05092,11.05527228,76.92693993,377.38232,0.0,,3.7900925,0.23,2,2
3.320,416970503809591,1.6335502,9.42174,-2.886791,-0.69447684,-0.6336958,0.022907428,1.1550311,9.392412,-2.5727181,0.47851902,0.029326916,-0.31407285,8.175,-12.6,-34.875,0.79872435,0.098469384,0.14227168,0.5761193,-178.79938,-71.50293,-158.92374,11.05527228,76.92693993,377.38232,0.0,,3.7900925,0.25,2,2
3.340,416970523809591,2.1852453,9.247213,-2.6928227,-0.69302607,-0.6009382,0.077045314,1.1305504,9.426348,-2.4568725,1.0546949,-0.17913485,-0.23595023,7.2000003,-12.525001,-34.800003,0.7959625,0.09327233,0.13866925,0.5816409,-177.59596,-72.13776,-158.4692,11.05527228,76.92693993,377.38232,0.0,,3.7900925,0.27,2,2
3.360,416970543809591,1.8824036,9.9184,-3.1129127,-0.68752825,-0.47830707,-0.022601994,1.1076709,9.46255,-2.324561,0.77473277,0.45584917,-0.78835154,7.2000003,-11.925,-36.675003,0.7929149,0.088095516,0.13580783,0.58725095,-176.15085,-72.78641,-157.70811,11.05527228,76.92693993,377.38232,0.0,,3.7900925,0.29,2,2
3.380,416970563809591,1.4092231,9.544073,-2.665156,-0.74922556,-0.34391683,-0.04237874,1.1028982,9.49665,-2.183491,0.30632478,0.047422886,-0.48166478,6.7500005,-11.25,-36.075,0.7898099,0.082834885,0.13447219,0.5924908,-174.26482,-73.373055,-156.38377,11.05527228,76.92693993,377.38232,0.0,,3.7900925,0.31,2,2
3.400,416970583809591,1.346561,9.331709,-2.4291637,-0.7825177,-0.27084213,0.03153589,1.1078584,9.5291815,-2.034145,0.23870248,-0.19747257,-0.39501858,6.7500005,-11.625,-37.350002,0.7866176,0.077363275,0.13456231,0.5974428,-171.87625,-73.89159,-154.45319,11.05527228,76.92693993,377.38232,0.0,,3.7900925,0.33,2,2
3.420,416970603809591,1.169193,9.969696,-2.2082763,-0.8058833,-0.17043126,0.063682646,1.101623,9.560486,-1.8851848,0.06756991,0.40920973,-0.3230914,5.925,-10.950001,-36.75,0.78235346,0.073333636,0.13414729,0.6036054,-169.71663,-74.60974,-152.67569,11.05527228,76.92693993,377.38232,0.0,,3.7900925,0.35,2,2
3.440,416970623809591,0.48634118,9.773634,-1.5044873,-0.78900814,-0.1867719,0.024358232,1.0981219,9.587205,-1.7464314,-0.6117807,0.18642902,0.24194407,5.7000003,-10.425,-36.45,0.77723813,0.07091943,0.13265848,0.6107713,-167.98418,-75.52244,-151.28163,11.05527228,76.92693993,377.38232,0.0,,3.7900925,0.37,2,2
3.460,416970643809591,0.2914757,9.543175,-1.0185947,-0.74632394,-0.37438372,0.075594515,1.1107106,9.607467,-1.6227418,-0.8192349,-0.064291954,0.6041471,5.55,-9.900001,-36.975002,0.7717677,0.06871721,0.13038237,0.6183802,-166.23416,-76.51001,-149.91617,11.05527228,76.92693993,377.38232,0.0,,3.7900925,0.39,2,2
3.480,416970663809591,0.62677,9.715158,-0.87607217,-0.69569856,-0.6424006,0.19196424,1.1166325,9.622395,-1.5274318,-0.48986247,0.09276438,0.6513597,4.5,-9.6,-37.875,0.7663491,0.0653402,0.12740745,0.6260341,-163.99841,-77.46694,-148.21645,11.05527228,76.92693993,377.38232,0.0,,3.7900925,0.41,2,2
3.500,416970683809591,1.70025,11.806786,-3.2476585,-0.59505856,-0.5257255,0.108428486,1.0831169,9.642613,-1.4203093,0.61713314,2.1641717,-1.8273492,3.7500002,-9.150001,-37.65,0.7623695,0.06092073,0.12424453,0.63196397,-161.64015,-78.1583,-146.49336,11.05527228,76.92693993,377.38232,0.0,,3.7900925,0.43,2,2
3.520,416970703809591,0.5295616,10.013065,-1.3854444,-0.56375176,-0.09483674,-0.14202604,1.064358,9.660145,-1.3111609,-0.5347964,0.352921,-0.07428342,4.05,-8.925,-39.600002,0.7585182,0.058610763,0.121231034,0.6374097,-159.97632,-78.86789,-145.27863,11.05527228,76.92693993,377.38232,0.0,,3.7900925,0.45,2,2
3.540,416970723809591,0.31944183,9.77483,-1.6815561,-0.58658284,-0.10415243,-0.060551967,1.0660905,9.674998,-1.1950967,-0.74664867,0.09983206,-0.48645937,3.3000002,-8.625,-36.9,0.7549887,0.05778776,0.11816085,0.64226395,-158.98315,-79.564835,-144.61565,11.05527228,76.92693993,377.38232,0.0,,3.7900925,0.47,2,2
3.560,416970743809591,0.86635137,9.778568,0.08105686,-0.5747473,-0.10560323,0.02802342,1.0692391,9.684711,-1.1106194,-0.20288777,0.09385729,1.1916763,2.4750001,-8.175,-38.025,0.75104064,0.05688874,0.116117336,0.64734215,-157.2975,-80.25541,-143.17996,11.05527228,76.92693993,377.38232,0.0,,3.7900925,0.49,2,2
3.580,416970763809591,1.4047365,9.582657,-0.3342474,-0.42775804,-0.12339467,0.020922117,1.0674909,9.691734,-1.0493485,0.33724552,-0.10907745,0.71510106,2.775,-8.25,-37.050003,0.7471493,0.055440273,0.11508019,0.6521527,-154.80403,-80.84842,-140.89731,11.05527228,76.92693993,377.38232,0.0,,3.7900925,0.51,2,2
3.600,416970783809591,1.2539886,9.41127,-0.30852458,-0.3029889,-0.06475166,-0.008093958,1.0650613,9.696349,-1.0083852,0.1889273,-0.28507853,0.69986063,2.8500001,-7.425,-38.775,0.7436745,0.054048654,0.11458149,0.6563336,-152.1215,-81.33388,-138.37585,11.05527228,76.92693993,377.38232,0.0,,3.7900925,0.53,2,2
3.620,416970803809591,1.2720844,9.500254,-0.31689945,-0.1896735,0.023671009,-0.021532983,1.0638261,9.69852,-0.9886187,0.20825827,-0.19826603,0.6717192,2.325,-7.8,-38.850002,0.7407984,0.053012326,0.11455365,0.6596881,-149.61455,-81.7046,-135.96141,11.05527228,76.92693993,377.38232,0.0,,3.7900925,0.55,2,2
3.640,416970823809591,1.0683954,9.54497,-0.4990531,-0.07254019,0.14698932,-0.022220206,1.0684927,9.698943,-0.9793905,-9.7334385E-5,-0.15397358,0.4803374,2.1750002,-8.175,-38.175003,0.7385777,0.052708514,0.1150363,0.6621349,-147.62172,-81.973236,-133.95844,11.05527228,76.92693993,377.38232,0.0,,3.7900925,0.57,2,2
3.660,416970843809591,1.2379866,10.016655,-1.1161022,-0.03436114,0.14546216,0.0056504984,1.059678,9.700961,-0.9689258,0.17830867,0.31569386,-0.14717644,2.7,-7.7250004,-38.175003,0.73723435,0.052823555,0.115958884,0.6634789,-146.29672,-82.1084,-132.5516,11.05527228,76.92693993,377.38232,0.0,,3.7900925,0.59,2,2
3.680,416970863809591,1.2032907,9.9423275,-1.3109677,-0.056046836,0.058948446,-0.05436696,1.0489742,9.703688,-0.9531479,0.15431654,0.23864031,-0.35781986,3.6750002,-7.8750005,-39.675003,0.7372213,0.052769776,0.117011175,0.66332626,-145.90332,-82.04863,-132.07742,11.05527228,76.92693993,377.38232,0.0,,3.7900925,0.61,2,2
3.700,416970883809591,0.75987077,9.972088,-0.8282157,-0.077427104,-0.0023671007,-0.046273,1.0623136,9.703442,-0.9407889,-0.30244282,0.26864672,0.11257318,3.7500002,-7.3500004,-39.525,0.73703814,0.053778347,0.11650468,0.66354513,-146.44724,-82.157555,-132.58191,11.05527228,76.92693993,377.38232,0.0,,3.7900925,0.63,2,2
3.720,416970903809591,0.9016454,9.163464,-1.0857433,-0.060933754,0.07414371,0.06421715,1.0715644,9.7045765,-0.9183381,-0.16991898,-0.5411124,-0.16740519,3.15,-7.65,-39.300003,0.73750305,0.05499228,0.1157107,0.6630706,-147.74,-82.20495,-133.84099,11.05527228,76.92693993,377.38232,0.0,,3.7900925,0.65,2,2
3.740,416970923809591,0.6170491,8.402098,-1.5547365,-0.120722145,0.13965896,0.04283689,1.0830194,9.708295,-0.86398244,-0.46597025,-1.3061972,-0.69075406,2.8500001,-7.3500004,-39.15,0.7384187,0.055959698,0.115624964,0.66198623,-149.00632,-82.132286,-135.03468,11.05527228,76.92693993,377.38232,0.0,,3.7900925,0.67,2,2
3.760,416970943809591,0.7851449,8.769247,-1.0043873,-0.27214023,0.122631095,0.052916154,1.0974147,9.712167,-0.79992485,-0.3122698,-0.9429202,-0.20446244,3.15,-7.5000005,-38.925003,0.7386002,0.05680591,0.11592664,0.6616609,-149.49155,-82.12795,-135.42618,11.05527228,76.92693993,377.38232,0.0,,3.7900925,0.69,2,2
3.780,416970963809591,1.5904794,10.022038,-1.1632109,-0.3248273,0.12003492,0.051694423,1.0984342,9.717373,-0.73246205,0.4920451,0.30466557,-0.43074888,3.45,-6.9,-39.9,0.73793244,0.05645492,0.11754911,0.66214854,-148.20778,-82.10198,-134.03802,11.05527228,76.92693993,377.38232,0.0,,3.7900925,0.71,2,2
3.800,416970983809591,1.3328023,9.962966,-1.0193424,-0.33605194,0.15752673,-0.0125990845,1.0978158,9.722765,-0.65804535,0.23498648,0.240201,-0.3612971,3.6750002,-7.05,-40.725002,0.73648393,0.055717062,0.11997017,0.6633819,-145.83514,-82.09979,-131.5269,11.05527228,76.92693993,377.38232,0.0,,3.7900925,0.73,2,2
3.820,416971003809591,0.465404,11.398809,-0.32886356,-0.36048657,0.09063706,0.011759145,1.1122669,9.725012,-0.59782046,-0.64686286,1.6737971,0.2689569,3.45,-6.8250003,-40.725002,0.7342277,0.05568442,0.12150967,0.66559535,-143.40341,-82.27707,-128.97269,11.05527228,76.92693993,377.38232,0.0,,3.7900925,0.75,2,2
3.840,416971023809591,1.4979069,9.674631,-0.61241305,-0.31864232,-0.07910698,0.069027714,1.1185375,9.727647,-0.5405112,0.37936938,-0.053016186,-0.07190186,3.525,-6.6000004,-40.725002,0.7319185,0.0546059,0.1231194,0.6679225,-140.2735,-82.38279,-125.79967,11.05527228,76.92693993,377.38232,0.0,,3.7900925,0.77,2,2
3.860,416971043809591,1.3972589,9.6557865,-0.29162526,-0.2971093,-0.08139773,0.029474223,1.1183091,9.73038,-0.48937675,0.27894974,-0.07459307,0.19775149,3.2250001,-5.775,-39.9,0.7293789,0.05290608,0.12455148,0.67056,-136.59627,-82.46443,-122.14455,11.05527228,76.92693993,377.38232,0.0,,3.7900925,0.79,2,2
3.880,416971063809591,1.3857434,9.724581,-0.47542393,-0.2630536,-0.008628465,-0.0075594503,1.1127372,9.733328,-0.44105202,0.27300626,-0.008747101,-0.034371927,2.325,-6.2250004,-40.2,0.72703415,0.051069465,0.12602039,0.67296773,-132.99931,-82.48587,-118.5779,11.05527228,76.92693993,377.38232,0.0,,3.7900925,0.81,2,2
3.900,416971083809591,1.0543375,9.693026,-0.23374885,-0.23777908,0.04207331,-0.02924515,1.1096907,9.735543,-0.3977347,-0.055353165,-0.042517662,0.16398585,2.625,-6.2250004,-40.875,0.72454304,0.050123103,0.12696174,0.67554456,-129.71788,-82.59043,-115.29802,11.05527228,76.92693993,377.38232,0.0,,3.7900925,0.83,2,2
3.920,416971103809591,0.98569334,9.697063,-0.51086766,-0.22059852,0.040622503,-0.014355321,1.110717,9.7372055,-0.35146764,-0.1250237,-0.04014206,-0.1594,2.775,-5.625,-40.725002,0.7224556,0.050050743,0.12719451,0.67774403,-127.29698,-82.75338,-112.86593,11.05527228,76.92693993,377.38232,0.0,,3.7900925,0.85,2,2
3.940,416971123809591,1.0325029,9.72488,-0.46002015,-0.23564106,0.0391717,0.0057268566,1.1144733,9.73842,-0.30252528,-0.08197039,-0.013539791,-0.15749487,2.25,-5.625,-39.975002,0.7207803,0.05031043,0.1271534,0.67952025,-125.44495,-82.91482,-110.99787,11.05527228,76.92693993,377.38232,0.0,,3.7900925,0.87,2,2
3.960,416971143809591,0.698106,9.69467,-0.1271187,-0.24144429,0.044974916,0.028176136,1.1319199,9.73772,-0.25683436,-0.43381387,-0.043049335,0.12971565,2.025,-5.3250003,-40.125,0.7190029,0.050613705,0.12715434,0.68138087,-123.40014,-83.073265,-108.92969,11.05527228,76.92693993,377.38232,0.0,,3.7900925,0.89,2,2
3.980,416971163809591,0.36505502,9.6580305,-0.50428736,-0.23434298,0.055359617,0.10697769,1.1720915,9.734228,-0.20344122,-0.80703646,-0.076197624,-0.30084616,2.325,-5.4750004,-41.25,0.7174203,0.051190924,0.12694824,0.68304473,-121.64667,-83.24466,-107.14736,11.05527228,76.92693993,377.38232,0.0,,3.7900925,0.91,2,2
4.000,416971183809591,0.8277671,9.733853,-0.76959157,-0.28084505,0.06314814,0.21326815,1.2229415,9.729182,-0.13342978,-0.39517444,0.004671097,-0.6361618,2.1750002,-4.5750003,-41.775,0.7166537,0.051939882,0.12656894,0.6838677,-120.97413,-83.38396,-106.445984,11.05527228,76.92693993,377.38232,0.0,,3.7900925,0.93,2,2
4.020,416971203809591,1.3325031,9.644871,-0.31286156,-0.35453063,0.07544179,0.25663954,1.2695287,9.723939,-0.06084007,0.062974334,-0.07906866,-0.2520215,2.4750001,-5.1000004,-42.45,0.7158172,0.050684676,0.12824625,0.68452317,-119.24691,-83.21048,-104.68288,11.05527228,76.92693993,377.38232,0.0,,3.7900925,0.95,2,2
4.040,416971223809591,2.140978,9.710972,0.50039905,-0.34391683,0.11293361,0.21609339,1.2904288,9.721377,-6.2250777E-4,0.85054934,-0.0104055405,0.50102156,2.8500001,-4.9500003,-43.050003,0.71356124,0.04832785,0.1314747,0.68641526,-115.38138,-82.888176,-100.74263,11.05527228,76.92693993,377.38232,0.0,,3.7900925,0.97,2,2
4.060,416971243809591,1.7801106,9.6783695,-0.45403808,-0.31047198,0.079412416,0.094684035,1.2997744,9.719869,0.07169281,0.48033613,-0.041499138,-0.5257309,2.625,-4.5,-42.600002,0.7117659,0.045764793,0.1348417,0.68779266,-112.39428,-82.4964,-97.68647,11.05527228,76.92693993,377.38232,0.0,,3.7900925,0.99,2,2
4.080,416971263809591,0.60089755,9.695717,0.52522457,-0.3476584,0.09147699,0.06582067,1.3289381,9.715322,0.1297446,-0.7280406,-0.019604206,0.39547998,2.1750002,-4.8,-42.375,0.70941347,0.044962835,0.13652779,0.6899436,-109.37405,-82.388054,-94.593376,11.05527229,76.92694001,377.36804,0.0,,3.7900925,0.01,2,2
4.100,416971283809591,0.6112166,9.685249,0.39317068,-0.28206676,0.07078394,0.1685223,1.3773557,9.707707,0.1835913,-0.7661391,-0.022458553,0.20957936,1.8750001,-4.7250004,-42.675003,0.7066268,0.044964354,0.13744986,0.6926156,-106.02211,-82.39421,-91.1662,11.05527229,76.92694001,377.36804,0.0,,3.7900925,0.03,2,2
4.120,416971303809591,0.57951176,9.659975,-0.22223341,-0.2749655,0.08788817,0.27023128,1.4482161,9.695917,0.24948885,-0.8687043,-0.035942554,-0.47172225,2.7,-4.275,-43.5,0.70454055,0.045322176,0.13796186,0.69461995,-103.559235,-82.42855,-88.63276,11.05527229,76.92694001,377.36804,0.0,,3.7900925,0.05,2,2
4.140,416971323809591,0.38584265,9.579067,-0.65877396,-0.34338233,0.12965605,0.39377868,1.5490496,9.677341,0.34624454,-1.1632069,-0.09827423,-1.0050185,2.1750002,-4.2000003,-43.95,0.70286906,0.04534859,0.13897486,0.6961142,-101.619804,-82.3755,-86.60799,11.05527229,76.92694001,377.36804,0.0,,3.7900925,0.07,2,2
4.160,416971343809591,1.205534,9.604641,-0.43938205,-0.48983717,0.18669553,0.533743,1.6562438,9.654874,0.45897567,-0.45070988,-0.050233364,-0.89835775,2.775,-3.2250001,-43.95,0.70096356,0.044095866,0.14160386,0.69757885,-99.53611,-82.07234,-84.408875,11.05527229,76.92694001,377.36804,0.0,,3.7900925,0.09,2,2
4.180,416971363809591,2.4324536,9.549007,1.1566306,-0.5290852,0.213879,0.54290605,1.7440854,9.63422,0.5570909,0.6883683,-0.08521271,0.59953976,2.625,-3.2250001,-44.475002,0.6978678,0.041454665,0.14613935,0.6998765,-96.514694,-81.47792,-81.226654,11.05527229,76.92694001,377.36804,0.0,,3.7900925,0.11,2,2
4.200,416971383809591,2.3238795,9.621241,1.3230814,-0.4509709,0.21204641,0.4516581,1.8156831,9.616226,0.6339443,0.50819635,0.0050144196,0.6891371,3.075,-2.625,-45.15,0.6942449,0.03840892,0.15134095,0.7025144,-93.505905,-80.77265,-78.034195,11.05527229,76.92694001,377.36804,0.0,,3.7900925,0.13,2,2
4.220,416971403809591,2.7638597,9.561121,1.0890334,-0.36376995,0.12683079,0.3554469,1.861539,9.603206,0.6953464,0.9023206,-0.042084217,0.39368695,3.075,-1.8000001,-45.15,0.690729,0.035279267,0.15640408,0.7050174,-91.046295,-80.0595,-75.40829,11.05527229,76.92694001,377.36804,0.0,,3.7900925,0.15,2,2
4.240,416971423809591,2.693122,9.597462,0.6809076,-0.30466878,0.078648835,0.22296561,1.8843496,9.594047,0.75755906,0.8087722,0.0034151077,-0.076651454,3.6750002,-1.6500001,-46.2,0.6876485,0.03234853,0.1607974,0.70718163,-89.1959,-79.41636,-73.43007,11.05527229,76.92694001,377.36804,0.0,,3.7900925,0.17,2,2
4.260,416971443809591,2.3889341,9.583255,1.0159028,-0.3020726,0.07719803,0.11194096,1.8947887,9.587634,0.810833,0.4941455,-0.0043792725,0.20506981,2.9250002,-1.725,-45.600002,0.68485,0.029971847,0.16428073,0.7092119,-87.61821,-78.88882,-71.75451,11.05527229,76.92694001,377.36804,0.0,,3.7900925,0.19,2,2
4.280,416971463809591,1.6803597,9.512218,2.0629122,-0.2317468,0.06673697,0.06528617,1.9116429,9.582795,0.82827884,-0.23128319,-0.070577145,1.2346334,3.075,-1.575,-46.050003,0.68223196,0.028436301,0.16675794,0.71123433,-86.10673,-78.50368,-70.16017,11.05527229,76.92694001,377.36804,0.0,,3.7900925,0.21,2,2
4.300,416971483809591,2.1668506,9.546017,1.678266,-0.064828016,0.02153298,0.08345939,1.921991,9.581053,0.8244703,0.24485946,-0.035036564,0.8537957,3.525,-0.90000004,-48.075,0.6794239,0.02698488,0.16902825,0.71344805,-84.518776,-78.12247,-68.49937,11.05527229,76.92694001,377.36804,0.0,,3.7900925,0.23,2,2
4.320,416971503809591,2.0044374,9.553943,1.2337992,0.030619595,0.0010690133,0.05199986,1.9329484,9.580228,0.80828905,0.071489215,-0.026285172,0.4255101,4.05,-1.95,-47.625,0.6777808,0.026063358,0.17035222,0.7147289,-83.64475,-77.8879,-67.58883,11.05527229,76.92694001,377.36804,0.0,,3.7900925,0.25,2,2
4.340,416971523809591,1.4111671,9.54796,0.735793,0.08063415,-0.010537416,0.069027714,1.9579993,9.576223,0.79534334,-0.5468322,-0.028262615,-0.059550375,3.6750002,-1.4250001,-46.425003,0.67600375,0.025926953,0.17110589,0.71625286,-82.54587,-77.755585,-66.436844,11.05527229,76.92694001,377.36804,0.0,,3.7900925,0.27,2,2
4.360,416971543809591,1.3941183,9.554541,0.36999023,0.058719374,0.009697477,0.1452331,1.9992425,9.567705,0.7952515,-0.60512424,-0.01316452,-0.42526126,3.3750002,-1.35,-46.425003,0.6761018,0.026544487,0.17087594,0.7162077,-82.53316,-77.83105,-66.39303,11.05527229,76.92694001,377.36804,0.0,,3.7900925,0.29,2,2
4.380,416971563809591,0.99436736,9.555438,0.1683949,-0.007864883,0.035506513,0.24281873,2.0688028,9.551388,0.81327885,-1.0744355,0.004050255,-0.644884,4.7250004,-1.0500001,-46.875,0.6769462,0.027363598,0.17046198,0.7154847,-83.00775,-77.96439,-66.83611,11.05527229,76.92694001,377.36804,0.0,,3.7900925,0.31,2,2
4.400,416971583809591,1.1611172,9.553793,0.35324043,-0.09216422,0.063682646,0.39110613,2.163455,9.527611,0.845269,-1.0023378,0.026182175,-0.4920286,5.25,-0.90000004,-48.825,0.67775565,0.027986607,0.17043903,0.71470374,-83.56597,-78.050095,-67.34612,11.05527229,76.92694001,377.36804,0.0,,3.7900925,0.33,2,2
4.420,416971603809591,2.1249762,9.527023,0.6189933,-0.16730058,0.02718348,0.4986183,2.2535472,9.503268,0.8830626,-0.1285711,0.023755074,-0.2640693,5.4750004,-0.975,-47.550003,0.67833817,0.027002199,0.1718845,0.71384114,-84.357414,-77.88653,-68.09716,11.05527229,76.92694001,377.36804,0.0,,3.7900925,0.35,2,2
4.440,416971623809591,4.080361,9.435648,1.2415758,-0.19097158,-0.004963276,0.42676538,2.2964318,9.490684,0.90758306,1.7839291,-0.055036068,0.33399278,6.15,-0.3,-48.15,0.6779901,0.023840982,0.17515354,0.71347433,-84.93122,-77.37166,-68.65438,11.05527229,76.92694001,377.36804,0.0,,3.7900925,0.37,2,2
4.460,416971643809591,3.9740298,9.265906,1.3420744,-0.16646063,-0.20135629,0.16378811,2.2987194,9.4887905,0.92148894,1.6753104,-0.22288418,0.42058545,6.0750003,-0.3,-47.7,0.67714787,0.019886212,0.1781752,0.7136349,-85.11099,-76.795044,-68.90187,11.05527229,76.92694001,377.36804,0.0,,3.7900925,0.39,2,2
4.480,416971663809591,2.7104697,9.580414,0.35757744,-0.15179989,-0.2619846,-0.0231365,2.2883377,9.488433,0.95055217,0.42213213,0.09198046,-0.5929747,5.625,0.0,-49.125004,0.6767856,0.016026534,0.17952336,0.71373916,-85.25637,-76.37324,-69.2471,11.05527229,76.92694001,377.36804,0.0,,3.7900925,0.41,2,2
4.500,416971683809591,2.1300607,9.526724,0.737438,-0.16989675,-0.04703658,-0.055206902,2.280692,9.486462,0.9878723,-0.15063131,0.0402627,-0.25043428,5.4,0.0,-48.825,0.6765394,0.014056026,0.17944051,0.7140472,-85.13537,-76.217384,-69.292496,11.05527229,76.92694001,377.36804,0.0,,3.7900925,0.43,2,2
4.520,416971703809591,2.099403,9.494571,1.0028918,-0.20013455,-0.01756236,-0.03749182,2.2784202,9.482942,1.0261631,-0.17901742,0.011629105,-0.023271292,5.8500004,0.0,-49.500004,0.67556393,0.013147419,0.17898321,0.71510965,-84.4479,-76.14645,-68.71627,11.05527229,76.92694001,377.36804,0.0,,3.7900925,0.45,2,2
4.540,416971723809591,1.9272691,9.491131,1.2859926,-0.19631664,-0.00679587,-0.003741546,2.2850623,9.477838,1.0580503,-0.3577932,0.013293743,0.22794235,5.4,0.52500004,-48.750004,0.67401963,0.012739827,0.17852943,0.71668833,-83.393364,-76.0896,-67.73175,11.05527229,76.92694001,377.36804,0.0,,3.7900925,0.47,2,2
4.560,416971743809591,2.0795126,9.481859,1.1516955,-0.16859865,-0.01320995,0.038713552,2.298236,9.4710045,1.090213,-0.21872342,0.010854244,0.06148252,5.4,0.75,-50.100002,0.67240673,0.012433494,0.17823268,0.7182822,-82.33598,-76.021805,-66.722916,11.05527229,76.92694001,377.36804,0.0,,3.7900925,0.49,2,2
4.580,416971763809591,2.508426,9.440284,0.76540416,-0.18295398,-0.020616684,0.061468262,2.3060303,9.464339,1.1308824,0.20239568,-0.024055481,-0.36547822,4.5750003,1.125,-49.65,0.67114687,0.011798421,0.17823206,0.7194729,-81.586624,-75.918274,-66.02416,11.05527229,76.92694001,377.36804,0.0,,3.7900925,0.51,2,2
4.600,416971783809591,2.5748267,9.453743,0.5694918,-0.23907718,-0.04039343,0.02924515,2.3086352,9.45674,1.1877052,0.26619148,-0.0029969215,-0.61821336,5.3250003,1.35,-50.175003,0.67023486,0.010744428,0.17842656,0.7202929,-81.12245,-75.78126,-65.628456,11.05527229,76.92694001,377.36804,0.0,,3.7900925,0.53,2,2
4.620,416971803809591,1.8433707,9.470792,0.48305106,-0.32665992,-0.035888303,0.020540327,2.3251324,9.442642,1.2651753,-0.48176163,0.028149605,-0.7821243,4.9500003,1.125,-50.550003,0.6700314,0.010246708,0.1777994,0.72064716,-80.889984,-75.77919,-65.488594,11.05527229,76.92694001,377.36804,0.0,,3.7900925,0.55,2,2
4.640,416971823809591,2.0370398,9.429516,0.3315555,-0.44990188,-0.06772963,0.08468112,2.3508341,9.421725,1.3693293,-0.3137943,0.0077905655,-1.0377738,4.8,1.95,-51.000004,0.6698259,0.009757945,0.17683911,0.7210822,-80.58471,-75.801155,-65.303055,11.05527229,76.92694001,377.36804,0.0,,3.7900925,0.57,2,2
4.660,416971843809591,2.6772695,9.365807,0.061615184,-0.61880594,-0.1350011,0.107588544,2.3713088,9.393876,1.5173577,0.30596066,-0.028069496,-1.4557425,5.7000003,3.2250001,-55.125004,0.6691326,0.007884446,0.17646725,0.72183686,-80.186455,-75.648155,-65.08728,11.05527229,76.92694001,377.36804,0.0,,3.7900925,0.59,2,2
4.680,416971863809591,2.7607193,9.195468,2.0814564,-0.8219185,-0.20433424,0.0670424,2.3729672,9.379129,1.6035379,0.38775194,-0.18366146,0.4779186,4.65,3.9750001,-55.95,0.6669027,0.004943274,0.17626758,0.72395676,-78.997154,-75.32088,-64.151596,11.05527229,76.92694001,377.36804,0.0,,3.7900925,0.61,2,2
4.700,416971883809591,2.5263722,9.263514,8.635248,-0.27557635,0.004657843,0.012446368,2.3934305,9.385596,1.5337766,0.13294166,-0.12208223,7.101472,2.9250002,4.5750003,-55.050003,0.6648988,0.0035811178,0.17630157,0.7257849,-77.940926,-75.107506,-63.201508,11.05527229,76.92694001,377.36804,0.0,,3.7900925,0.63,2,2
4.720,416971903809591,1.5206388,9.222836,-0.65324056,0.16791144,-0.58413935,0.029856013,2.4350832,9.377273,1.5190511,-0.9144443,-0.15443707,-2.1722918,2.775,3.9750001,-55.500004,0.6635089,9.320143E-4,0.17471485,0.7274484,-76.986664,-74.94186,-62.593426,11.05527229,76.92694001,377.36804,0.0,,3.7900925,0.65,2,2
4.740,416971923809591,2.0475082,9.67807,-0.67582285,-0.07964149,-0.39087707,0.16752964,2.468856,9.363835,1.5471721,-0.42134774,0.31423473,-2.2229948,3.3000002,4.3500004,-55.875004,0.66389334,-0.0023340276,0.1725864,0.7276033,-76.95265,-74.86128,-63.00236,11.05527229,76.92694001,377.36804,0.0,,3.7900925,0.67,2,2
4.760,416971943809591,4.026821,9.133105,3.5307593,-0.122631095,-0.08979712,0.12721258,2.4683976,9.3642435,1.545425,1.5584236,-0.23113823,1.9853343,3.45,4.65,-56.7,0.663421,-0.0055838767,0.17188968,0.72818506,-76.75791,-74.63703,-63.128872,11.05527229,76.92694001,377.36804,0.0,,3.7900925,0.69,2,2
4.780,416971963809591,2.343321,9.412467,1.1877373,-0.004581485,-0.017638719,-0.0022907425,2.4705474,9.363845,1.5444069,-0.12722635,0.04862213,-0.35666952,2.8500001,4.875,-57.225002,0.66341174,-0.005674501,0.1718708,0.7281976,-76.754814,-74.63103,-63.13468,11.05527229,76.92694001,377.36804,0.0,,3.7900925,0.71,2,2
4.800,416971983809591,2.178665,9.34487,1.1780164,-0.0054214243,-0.006261363,0.017180571,2.4749794,9.362516,1.5453614,-0.29631442,-0.01764679,-0.36734492,4.125,5.025,-57.675003,0.6634013,-0.005720786,0.17186272,0.72820866,-76.75046,-74.62751,-63.13475,11.05527229,76.92694001,377.36804,0.0,,3.7900925,0.73,2,2
4.820,416972003809591,2.6575289,9.309277,1.6710875,-0.0012217294,0.0022907427,0.019242238,2.4767437,9.361938,1.5460418,0.18078506,-0.052661896,0.12504566,2.8500001,3.9750001,-55.95,0.66338503,-0.005770997,0.17186008,0.7282238,-76.74435,-74.62302,-63.132915,11.05527229,76.92694001,377.36804,0.0,,3.7900925,0.75,2,2
4.840,416972023809591,2.5773692,9.337093,1.6513467,6.872228E-4,0.005955931,0.007864883,2.4783616,9.361359,1.5469571,0.09900749,-0.024265766,0.10438961,2.4750001,4.3500004,-55.725002,0.66338444,-0.005772159,0.1718602,0.7282243,-76.744125,-74.62287,-63.13278,11.05527229,76.92694001,377.36804,0.0,,3.7900925,0.77,2,2
4.860,416972043809591,2.5929224,9.34816,1.6953149,-4.5814854E-4,0.002443459,0.0062613636,2.4787948,9.361368,1.5462042,0.114127636,-0.013208389,0.14911062,2.4750001,4.3500004,-55.500004,0.66338366,-0.005773337,0.17186044,0.7282249,-76.743835,-74.6227,-63.132557,11.05527229,76.92694001,377.36804,0.0,,3.7900925,0.79,2,2
4.880,416972063809591,2.5151558,9.341729,1.5535401,0.002596175,-0.006261363,3.0543236E-4,2.4787061,9.361451,1.545841,0.03644955,-0.019721985,0.007699132,3.3750002,5.1000004,-56.475002,0.6633831,-0.0057740076,0.1718606,0.7282252,-76.74363,-74.62257,-63.132393,11.05527229,76.92694001,377.36804,0.0,,3.7900925,0.81,2,2
4.900,416972083809591,2.5042386,9.371191,1.5873387,0.0019089523,-0.0040469784,-0.001679878,2.4781315,9.361461,1.5467077,0.026106954,0.009730339,0.040630937,2.1750002,4.65,-55.425003,0.6633826,-0.0057747294,0.17186081,0.7282256,-76.74342,-74.622475,-63.132233,11.05527229,76.92694001,377.36804,0.0,,3.7900925,0.83,2,2
4.920,416972103809591,2.3255246,9.380314,1.6272689,-0.0020616683,0.0015271618,0.0012217294,2.4798925,9.361235,1.545253,-0.15436792,0.019078732,0.08201587,2.5500002,4.3500004,-54.600002,0.6633825,-0.0057748347,0.17186083,0.7282257,-76.74336,-74.622444,-63.132175,11.05527229,76.92694001,377.36804,0.0,,3.7900925,0.85,2,2
4.940,416972123809591,2.4358935,9.37822,1.4324034,0.0,-0.017944152,0.007483093,2.4815798,9.361008,1.5439142,-0.045686364,0.017211914,-0.11151075,2.1750002,4.125,-54.675003,0.66322374,-0.005878827,0.1718863,0.7283621,-76.66943,-74.60382,-63.06444,11.05527229,76.92694001,377.36804,0.0,,3.7900925,0.87,2,2
4.960,416972143809591,2.4514468,9.392128,1.417897,-3.0543236E-4,-0.015500693,0.0072540184,2.4830334,9.360345,1.5455941,-0.031586647,0.031783104,-0.12769711,2.9250002,5.025,-56.925003,0.6631296,-0.0059516295,0.17191811,0.7284387,-76.62997,-74.59067,-63.02816,11.05527229,76.92694001,377.36804,0.0,,3.7900925,0.89,2,2
4.980,416972163809591,2.5265217,9.322586,1.5554843,-0.0063377214,0.008628463,0.007864883,2.48491,9.359784,1.5459746,0.041611552,-0.03719759,0.009509683,4.125,5.025,-58.2,0.6630266,-0.006039912,0.17196578,0.7285189,-76.59013,-74.57457,-62.991447,11.05527229,76.92694001,377.36804,0.0,,3.7900925,0.91,2,2
5.000,416972183809591,2.5075285,9.277422,1.660619,7.635809E-5,-0.0044287695,0.008246673,2.4888227,9.358899,1.5450418,0.018705845,-0.081477165,0.11557716,4.05,4.5750003,-57.600002,0.6629004,-0.006134029,0.17202345,0.7286171,-76.5404,-74.555885,-62.944454,11.05527229,76.92694001,377.36804,0.0,,3.7900925,0.93,2,2
5.020,416972203809591,2.379363,9.314211,1.473231,0.0032833978,-3.8179033E-4,0.02321286,2.4972098,9.356502,1.546032,-0.11784673,-0.04229021,-0.072800994,3.825,4.3500004,-56.250004,0.66265506,-0.006301123,0.17212251,0.72881156,-76.44023,-74.52183,-62.849426,11.05527229,76.92694001,377.36804,0.0,,3.7900925,0.95,2,2
5.040,416972223809591,2.1996021,9.337841,1.7035402,0.0,0.0029016072,0.052687082,2.516569,9.351763,1.5433081,-0.31696665,-0.0139222145,0.16023207,3.7500002,4.5,-57.225002,0.6623856,-0.0064501306,0.17221685,0.72902864,-76.32535,-74.488,-62.738586,11.05527229,76.92694001,377.36804,0.0,,3.7900925,0.97,2,2
5.060,416972243809591,2.8022945,9.361769,1.7751753,0.006032289,-0.052916154,0.0878118,2.5304837,9.348977,1.5374242,0.27181077,0.01279211,0.23775107,3.525,4.7250004,-56.7,0.6560173,-0.0104813315,0.17492934,0.73401713,-73.90183,-73.61521,-60.41059,11.05527229,76.92694001,377.36804,0.0,,3.7900925,0.99,2,2
5.080,416972263809591,2.878416,9.323783,1.3002,0.0073303767,-0.06543888,0.054519676,2.5322459,9.348361,1.5382657,0.3461702,-0.024578094,-0.23806572,3.3750002,4.7250004,-56.175003,0.6528692,-0.013950755,0.17702542,0.7362772,-73.07883,-73.02775,-59.69029,11.05527225,76.92694011,377.36816,0.0,,3.7900925,0.01,2,2
5.100,416972283809591,2.5099216,9.350103,1.6751254,-9.162971E-4,1.5271618E-4,0.010155626,2.533534,9.348221,1.5369946,-0.023612618,0.0018830299,0.13813084,4.65,4.9500003,-59.250004,0.6528687,-0.013951261,0.17702574,0.7362776,-73.078674,-73.02764,-59.690144,11.05527225,76.92694011,377.36816,0.0,,3.7900925,0.03,2,2
5.120,416972303809591,2.4801607,9.384352,1.5553348,0.0034361142,-0.013744457,0.0061850054,2.5362883,9.347663,1.5358455,-0.056127667,0.036688328,0.019489229,4.7250004,5.025,-57.525,0.6528206,-0.01397942,0.1770386,0.73631716,-73.06069,-73.02185,-59.673306,11.05527225,76.92694011,377.36816,0.0,,3.7900925,0.05,2,2
5.140,416972323809591,2.2492533,9.396914,1.4033904,0.001679878,-0.0041233366,0.021380266,2.5448942,9.345053,1.5374992,-0.29564095,0.05186081,-0.13410872,3.3750002,4.275,-55.500004,0.6527386,-0.014018057,0.17704721,0.7363883,-73.02653,-73.01366,-59.641453,11.05527225,76.92694011,377.36816,0.0,,3.7900925,0.07,2,2
5.160,416972343809591,2.8036404,9.30793,1.7111673,-0.004963276,-0.0019089524,0.0391717,2.5486567,9.344418,1.535125,0.25498366,-0.036487103,0.17604232,2.8500001,4.8,-54.075,0.6526513,-0.014069969,0.17707033,0.7364602,-72.993996,-73.00311,-59.611084,11.05527225,76.92694011,377.36816,0.0,,3.7900925,0.09,2,2
5.180,416972363809591,2.6301608,9.332308,1.452892,7.635809E-4,-0.03558287,0.012064578,2.550101,9.344026,1.5351104,0.08005965,-0.011718273,-0.08221841,3.7500002,4.7250004,-55.050003,0.65257114,-0.014144354,0.17710458,0.7365227,-72.968895,-72.99061,-59.58905,11.05527225,76.92694011,377.36816,0.0,,3.7900925,0.11,2,2
5.200,416972383809591,2.4569802,9.2742815,1.5094224,-0.0017562361,-0.005726857,0.008628464,2.554045,9.342926,1.5352476,-0.09706473,-0.06864452,-0.025825143,3.075,4.7250004,-55.050003,0.6525704,-0.014145019,0.17710482,0.7365232,-72.96865,-72.990486,-59.588837,11.05527225,76.92694011,377.36816,0.0,,3.7900925,0.13,2,2
5.220,416972403809591,2.594418,9.32468,1.5846468,-4.5814854E-4,-0.00397062,0.019318596,2.557494,9.342318,1.5332024,0.036924005,-0.017637253,0.05144441,2.8500001,5.1000004,-55.425003,0.65251184,-0.0142024895,0.17711815,0.736572,-72.94809,-72.982,-59.571743,11.05527225,76.92694011,377.36816,0.0,,3.7900925,0.15,2,2
5.240,416972423809591,2.423032,9.409177,1.5693926,0.0045814854,-0.019547671,0.029856013,2.5668404,9.339195,1.5365995,-0.14380836,0.069981575,0.032793045,3.15,4.5750003,-54.525,0.65245205,-0.014213913,0.17709236,0.73663235,-72.91524,-72.97953,-59.541893,11.05527225,76.92694011,377.36816,0.0,,3.7900925,0.17,2,2
5.260,416972443809591,2.466402,9.162716,1.691576,-7.635809E-5,-0.05505418,0.050701775,2.574736,9.337903,1.5312378,-0.10833418,-0.17518711,0.16033822,3.075,4.425,-55.425003,0.6508331,-0.015255961,0.17705938,0.7380792,-72.2294,-72.81006,-58.94114,11.05527225,76.92694011,377.36816,0.0,,3.7900925,0.19,2,2
5.280,416972463809591,2.2579274,9.382557,1.5418751,0.006032289,-0.09216422,0.082008585,2.5443406,9.345838,1.5336303,-0.2864133,0.036719322,0.0082448125,4.125,5.025,-56.775,0.64983904,-0.015071987,0.17602967,0.7392225,-71.534485,-72.83233,-58.31599,11.05527225,76.92694011,377.36816,0.0,,3.7900925,0.21,2,2
5.300,416972483809591,0.51505506,9.427871,1.7395821,0.008933896,-0.10056361,0.1698204,2.6048586,9.331344,1.5202411,-2.0898035,0.0965271,0.21934092,4.875,5.25,-57.675003,0.6493819,-0.014158419,0.17438059,0.7400423,-70.89127,-72.97993,-57.73581,11.05527225,76.92694011,377.36816,0.0,,3.7900925,0.23,2,2
5.320,416972503809591,1.5720844,9.505488,1.5441184,0.013133591,-0.23235768,0.46372268,2.7371662,9.296473,1.5012999,-1.1650817,0.20901585,0.042818546,4.3500004,5.3250003,-55.65,0.6492965,-0.01443757,0.17337574,0.74035525,-70.65512,-73.02141,-57.606083,11.05527225,76.92694011,377.36816,0.0,,3.7900925,0.25,2,2
5.340,416972523809591,5.029564,9.2002535,1.4180465,0.01519526,-0.16791144,0.48708826,2.7856565,9.284313,1.4872885,2.2439072,-0.084059715,-0.069242,5.4750004,5.1000004,-55.500004,0.6497241,-0.017696371,0.17467602,0.73959696,-71.39991,-72.72408,-58.50742,11.05527225,76.92694011,377.36816,0.0,,3.7900925,0.27,2,2
5.360,416972543809591,4.8623652,8.789137,1.6516459,0.00641408,-0.24404046,0.16676608,2.786386,9.286845,1.4700162,2.0759792,-0.4977088,0.1816296,5.8500004,5.175,-55.500004,0.6500179,-0.02210113,0.17661394,0.7387472,-72.278404,-72.286736,-59.58209,11.05527225,76.92694011,377.36816,0.0,,3.7900925,0.29,2,2
5.380,416972563809591,2.9681468,9.352497,1.4534903,-1.5271618E-4,-0.3069595,-0.048945535,2.78278,9.290179,1.4557151,0.18536699,0.06231785,-0.002224803,5.625,5.4750004,-55.575,0.650503,-0.026234623,0.1773726,0.7380008,-72.94801,-71.95931,-60.524506,11.05527225,76.92694011,377.36816,0.0,,3.7900925,0.31,2,2
5.400,416972583809591,2.2710876,9.395866,1.2387344,0.0031306818,-0.22785255,-0.042149667,2.789882,9.289575,1.4459422,-0.5187942,0.10629225,-0.2072078,5.25,5.4,-55.425003,0.6514891,-0.028552422,0.17622882,0.7373266,-73.32078,-71.92606,-61.18217,11.05527225,76.92694011,377.36816,0.0,,3.7900925,0.33,2,2
5.420,416972603809591,2.8160532,9.22822,1.7627625,0.001679878,-0.19807288,0.006490438,2.8032053,9.288728,1.4254687,0.0128479,-0.06050825,0.33729386,5.3250003,5.1000004,-55.800003,0.6518456,-0.030539958,0.17519443,0.73718554,-73.41126,-71.87155,-61.52092,11.05527225,76.92694011,377.36816,0.0,,3.7900925,0.35,2,2
5.440,416972623809591,2.6714368,9.243324,1.9132112,0.006032289,-0.38912082,0.014966186,2.8243237,9.288629,1.3838254,-0.15288675,-0.0453043,0.5293858,4.875,5.3250003,-55.575,0.65177256,-0.03279292,0.17381057,0.737483,-73.26011,-71.794655,-61.66846,11.05527225,76.92694011,377.36816,0.0,,3.7900925,0.37,2,2
5.460,416972643809591,1.989632,9.464212,0.46480578,0.014278963,-0.61262095,0.0415388,2.8595712,9.279173,1.3748449,-0.8699392,0.18503904,-0.9100391,4.5,5.625,-56.325,0.65201026,-0.035757087,0.1713513,0.7377044,-73.088524,-71.75521,-61.9436,11.05527225,76.92694011,377.36816,0.0,,3.7900925,0.39,2,2
5.480,416972663809591,2.6832514,9.176325,1.6797615,0.009086613,-0.15645772,0.17020218,2.9018984,9.268106,1.3607297,-0.21864688,-0.09178114,0.31903183,4.5750003,5.1000004,-56.100002,0.65242237,-0.038404807,0.16943485,0.73765045,-73.08207,-71.71453,-62.312786,11.05527225,76.92694011,377.36816,0.0,,3.7900925,0.41,2,2
5.500,416972683809591,2.4978077,9.227771,1.9091734,0.012217294,-0.25366157,0.20074542,2.9629655,9.252421,1.3356373,-0.46515775,-0.024650574,0.57353604,4.5750003,5.4,-55.95,0.65253526,-0.041040424,0.16835831,0.7376579,-73.10532,-71.600105,-62.640266,11.05527225,76.92694011,377.36816,0.0,,3.7900925,0.43,2,2
5.520,416972703809591,1.9740787,9.912716,0.79740816,0.010613775,-0.34590214,0.3075704,3.0490563,9.227076,1.3170924,-1.0749776,0.6856408,-0.51968426,4.875,6.0,-55.500004,0.6528645,-0.044265732,0.16744085,0.73738754,-73.29351,-71.44247,-63.167618,11.05527225,76.92694011,377.36816,0.0,,3.7900925,0.45,2,2
5.540,416972723809591,3.3095727,9.163015,1.5403795,0.0074830926,-0.30275983,0.41523528,3.1295037,9.202819,1.2979658,0.18006909,-0.039803505,0.24241382,6.15,5.55,-56.250004,0.65271467,-0.048974354,0.1682335,0.7370294,-73.68127,-71.02518,-63.872314,11.05527225,76.92694011,377.36816,0.0,,3.7900925,0.47,2,2
5.560,416972743809591,3.6650565,9.147162,0.9741779,0.0022907425,-0.27557635,0.38293582,3.1932557,9.181931,1.2906042,0.4718008,-0.034768105,-0.31642634,6.7500005,5.8500004,-56.4,0.65349114,-0.05520346,0.17014132,0.7354353,-74.7327,-70.46136,-65.27232,11.05527225,76.92694011,377.36816,0.0,,3.7900925,0.49,2,2
5.580,416972763809591,4.0884366,8.884251,0.8838489,0.0071013025,-0.06436987,0.31253368,3.229235,9.168507,1.2964988,0.85920155,-0.2842555,-0.4126499,7.2000003,5.775,-56.325,0.6545398,-0.06147979,0.17297716,0.7333192,-76.001076,-69.83505,-66.815796,11.05527225,76.92694011,377.36816,0.0,,3.7900925,0.51,2,2
5.600,416972783809591,4.6002016,8.702248,1.5711871,0.0231365,0.13660462,0.17821978,3.2353542,9.166544,1.29512,1.3648474,-0.46429682,0.27606717,7.7250004,5.8500004,-55.575,0.65502894,-0.06668042,0.17673281,0.7315265,-77.07201,-69.191475,-67.99674,11.05527225,76.92694011,377.36816,0.0,,3.7900925,0.53,2,2
5.620,416972803809591,3.7313077,9.006584,1.1364412,-0.0011453714,-0.012446368,0.018020509,3.2297106,9.168542,1.2950616,0.50159717,-0.16195726,-0.15862042,7.8750005,5.7000003,-55.65,0.6550382,-0.0668603,0.17687628,0.7314669,-77.10712,-69.16772,-68.03451,11.05527225,76.92694011,377.36816,0.0,,3.7900925,0.55,2,2
5.640,416972823809591,3.1736307,8.894121,1.2560823,-0.0030543236,-0.009315686,-0.032986697,3.2255712,9.170544,1.2912085,-0.05194056,-0.27642202,-0.03512615,8.1,6.3750005,-56.4,0.65536135,-0.06887532,0.17834905,0.73064065,-77.56308,-68.923256,-68.53162,11.05527225,76.92694011,377.36816,0.0,,3.7900925,0.57,2,2
5.660,416972843809591,3.4930725,9.494272,1.3277175,-0.005574141,-0.07422006,-0.03672824,3.219012,9.172536,1.2934173,0.27406037,0.32173586,0.03430015,7.9500003,6.0750003,-56.625004,0.65536857,-0.070448376,0.17935136,0.73025167,-77.79202,-68.73263,-68.80483,11.05527225,76.92694011,377.36816,0.0,,3.7900925,0.59,2,2
5.680,416972863809591,2.941228,9.175877,1.4611173,-6.872228E-4,0.018631373,-0.026114466,3.2209356,9.171945,1.2928243,-0.2797078,0.003931999,0.16829306,7.5750003,6.15,-55.500004,0.6553844,-0.07049631,0.17936803,0.73022985,-77.80301,-68.72868,-68.818344,11.05527225,76.92694011,377.36816,0.0,,3.7900925,0.61,2,2
5.700,416972883809591,3.3263226,9.109924,1.2714862,-0.0031306818,-0.016875139,0.004963276,3.2230852,9.171133,1.2932242,0.10323739,-0.061208725,-0.021738052,7.5750003,6.0,-55.575,0.655387,-0.07050436,0.17936444,0.7302283,-77.803825,-68.72858,-68.820114,11.05527225,76.92694011,377.36816,0.0,,3.7900925,0.63,2,2
5.720,416972903809591,3.386891,9.213863,1.3727324,-2.2907427E-4,3.0543236E-4,0.008246673,3.2244859,9.170708,1.2927525,0.16240501,0.043155193,0.079979956,6.8250003,6.3750005,-53.550003,0.6553869,-0.07050447,0.17936444,0.7302283,-77.8038,-68.72856,-68.8201,11.05527225,76.92694011,377.36816,0.0,,3.7900925,0.65,2,2
5.740,416972923809591,3.257529,9.084351,1.2801602,-3.0543236E-4,-0.007864883,0.004963276,3.225988,9.170265,1.29214,0.03154111,-0.085914135,-0.011979878,7.425,5.625,-56.550003,0.65537715,-0.07053499,0.17937091,0.7302338,-77.80223,-68.72557,-68.820465,11.05527225,76.92694011,377.36816,0.0,,3.7900925,0.67,2,2
5.760,416972943809591,3.2893834,9.127123,1.2125628,-0.0015271618,-0.007941241,0.0051159924,3.2264385,9.169964,1.2931546,0.06294489,-0.042840958,-0.08059174,7.8750005,6.15,-55.95,0.6553769,-0.070535325,0.17937104,0.7302339,-77.80218,-68.72552,-68.82043,11.05527225,76.92694011,377.36816,0.0,,3.7900925,0.69,2,2
5.780,416972963809591,3.192773,9.14477,1.4904294,9.162971E-4,0.0029779654,0.0036651883,3.2287579,9.169339,1.2917984,-0.035984755,-0.024569035,0.19863105,7.05,6.2250004,-55.050003,0.65537673,-0.07053541,0.17937104,0.73023397,-77.8021,-68.72549,-68.820366,11.05527225,76.92694011,377.36816,0.0,,3.7900925,0.71,2,2
5.800,416972983809591,3.359523,9.123833,1.189532,7.635809E-5,-0.013057233,0.0071013025,3.230091,9.168934,1.291334,0.12943196,-0.04510069,-0.10180205,8.025001,6.3750005,-56.475002,0.65536624,-0.07054786,0.17937249,0.7302424,-77.79868,-68.724075,-68.817825,11.05527225,76.92694011,377.36816,0.0,,3.7900925,0.73,2,2
5.820,416973003809591,3.275475,9.180812,1.2544372,-4.5814854E-4,-0.005345066,0.0054214243,3.2314577,9.168435,1.2914622,0.044017315,0.012376785,-0.037024915,7.05,5.55,-54.675003,0.65536296,-0.07055559,0.1793674,0.73024637,-77.79691,-68.72381,-68.81711,11.05527225,76.92694011,377.36816,0.0,,3.7900925,0.75,2,2
5.840,416973023809591,3.2913275,9.13475,1.2925729,-0.0012217294,-0.0017562362,0.0054977825,3.2327456,9.168053,1.2909441,0.05858183,-0.033302784,0.0016287565,6.3,5.775,-54.525,0.65536284,-0.070555635,0.17936717,0.73024654,-77.79683,-68.72382,-68.817055,11.05527225,76.92694011,377.36816,0.0,,3.7900925,0.77,2,2
5.860,416973043809591,3.2676983,9.084052,1.1935699,-0.0014508037,-0.0054977825,0.0045814854,3.2321742,9.168214,1.2912415,0.03552425,-0.08416176,-0.09767169,6.2250004,6.4500003,-53.100002,0.6553629,-0.07055546,0.17936672,0.7302466,-77.79678,-68.72388,-68.817024,11.05527225,76.92694011,377.36816,0.0,,3.7900925,0.79,2,2
5.880,416973063809591,3.3723845,9.269495,1.2773186,-0.0055741407,-0.008933896,-0.006948586,3.2317224,9.168322,1.2916025,0.14066207,0.10117388,-0.0142838955,6.6000004,6.4500003,-53.4,0.6553897,-0.070554286,0.17934346,0.73022884,-77.803795,-68.72696,-68.8259,11.05527225,76.92694011,377.36816,0.0,,3.7900925,0.81,2,2
5.900,416973083809591,3.2430224,9.027521,1.1832508,-0.005879573,-0.004199695,-0.0046578436,3.2321367,9.167941,1.2932627,0.0108857155,-0.14041948,-0.110011935,6.4500003,6.3750005,-55.350002,0.6553901,-0.07055424,0.17934303,0.7302286,-77.803856,-68.72701,-68.826004,11.05527225,76.92694011,377.36816,0.0,,3.7900925,0.83,2,2
5.920,416973103809591,3.2238798,9.089585,1.3758731,-0.005115992,0.004276054,0.002443459,3.232907,9.167419,1.2950401,-0.009027243,-0.07783413,0.0808329,7.5750003,5.55,-55.65,0.6554017,-0.07054764,0.17930768,0.7302287,-77.80269,-68.730865,-68.82726,11.05527225,76.92694011,377.36816,0.0,,3.7900925,0.85,2,2
5.940,416973123809591,3.3563824,9.216555,1.3996518,-0.0014508037,0.016340632,0.004046979,3.2339659,9.166967,1.2955915,0.1224165,0.04958725,0.10406023,6.8250003,6.0,-54.975002,0.6553978,-0.07056428,0.17929664,0.7302345,-77.80012,-68.73047,-68.826965,11.05527225,76.92694011,377.36816,0.0,,3.7900925,0.87,2,2
5.960,416973143809591,3.3130126,9.11142,1.3354942,-9.926552E-4,0.0023671007,0.0038179047,3.234972,9.166564,1.2959349,0.07804048,-0.05514431,0.039559245,6.0750003,6.0,-53.550003,0.6553975,-0.07056449,0.17929663,0.73023474,-77.80001,-68.73043,-68.82687,11.05527225,76.92694011,377.36816,0.0,,3.7900925,0.89,2,2
5.980,416973163809591,3.3453155,9.0181,1.3042378,-0.0029779654,-0.0048105596,8.39939E-4,3.2394521,9.1648245,1.2970418,0.10586345,-0.1467247,0.0071961284,6.675,6.0750003,-54.15,0.6553973,-0.07056459,0.17929658,0.73023486,-77.799934,-68.730415,-68.826805,11.05527225,76.92694011,377.36816,0.0,,3.7900925,0.91,2,2
6.000,416973183809591,3.3593736,9.169296,1.3950157,8.39939E-4,0.0015271618,9.162971E-4,3.2415488,9.16414,1.2966479,0.11782467,0.005156517,0.09836775,7.05,6.0,-55.425003,0.65539694,-0.07056468,0.1792965,0.7302351,-77.799774,-68.73038,-68.82666,11.05527225,76.92694011,377.36816,0.0,,3.7900925,0.93,2,2
6.020,416973203809591,3.3082268,9.1538925,1.2892828,9.162971E-4,2.2907427E-4,-3.0543236E-4,3.2437055,9.1635685,1.2952905,0.06452131,-0.00967598,-0.006007731,6.3750005,5.925,-54.15,0.65539694,-0.07056472,0.1792965,0.7302351,-77.799774,-68.73038,-68.82667,11.05527225,76.92694011,377.36816,0.0,,3.7900925,0.95,2,2
6.040,416973223809591,3.3070304,9.120094,1.2626626,8.39939E-4,-0.0032833978,-0.0020616683,3.2434013,9.16374,1.2948362,0.06362915,-0.043646336,-0.032173574,6.15,6.2250004,-53.325,0.6553969,-0.07056476,0.1792965,0.7302351,-77.79976,-68.730354,-68.82665,11.05527225,76.92694011,377.36816,0.0,,3.7900925,0.97,2,2
6.060,416973243809591,3.2555847,9.155987,1.2835999,-1.5271618E-4,-0.0013744454,-0.004276053,3.243417,9.163596,1.295816,0.012167692,-0.007609844,-0.012216151,7.1250005,6.2250004,-55.2,0.6553966,-0.0705649,0.17929643,0.7302354,-77.79964,-68.73035,-68.826546,11.05527225,76.92694011,377.36816,0.0,,3.7900925,0.99,2,2
6.080,416973263809591,3.252145,9.117552,1.3034902,7.635809E-4,0.010537417,-0.0022907427,3.2456603,9.162813,1.2957362,0.006484747,-0.04526186,0.0077539086,6.4500003,6.0750003,-54.300003,0.6553962,-0.070565075,0.17929637,0.73023564,-77.79949,-68.7303,-68.82642,11.05527232,76.92694008,377.35974,0.0,,3.7900925,0.01,2,2
6.100,416973283809591,3.2980573,9.126375,1.3114164,0.0029779654,-9.92655E-4,0.0012980875,3.2478228,9.161468,1.2998233,0.050234556,-0.035092354,0.011593103,6.0750003,5.7000003,-54.525,0.6553961,-0.07056514,0.17929633,0.73023576,-77.79944,-68.7303,-68.826385,11.05527232,76.92694008,377.35974,0.0,,3.7900925,0.03,2,2
6.120,416973303809591,3.3357444,9.162118,1.4291134,0.0023671007,0.0037415463,-9.162971E-4,3.251193,9.161001,1.2946786,0.084551215,0.0011167526,0.13443476,7.05,6.0,-55.95,0.65539587,-0.07056524,0.17929631,0.7302359,-77.79935,-68.73027,-68.826294,11.05527232,76.92694008,377.35974,0.0,,3.7900925,0.05,2,2
6.140,416973323809591,3.3457642,9.115158,1.154537,-4.5814854E-4,-0.009773836,-0.002443459,3.2527723,9.160291,1.2957361,0.09299195,-0.04513216,-0.14119914,7.65,6.0,-57.15,0.6553842,-0.070572406,0.17929266,0.7302472,-77.79442,-68.72958,-68.82225,11.05527232,76.92694008,377.35974,0.0,,3.7900925,0.07,2,2
6.160,416973343809591,3.31047,9.115159,1.326521,0.0,-3.8179057E-4,-0.0034361142,3.2466753,9.161718,1.3009278,0.06379485,-0.046559334,0.02559328,7.3500004,5.925,-56.250004,0.6553839,-0.070572555,0.17929263,0.73024744,-77.794304,-68.72956,-68.82214,11.05527232,76.92694008,377.35974,0.0,,3.7900925,0.09,2,2
6.180,416973363809591,3.1033413,9.062218,1.406232,-0.0012217294,0.009926552,-0.012675444,3.2518177,9.160511,1.2965723,-0.14847636,-0.098293304,0.10965964,6.8250003,6.0750003,-55.725002,0.65537155,-0.07057881,0.17928995,0.7302591,-77.789246,-68.72884,-68.81781,11.05527232,76.92694008,377.35974,0.0,,3.7900925,0.11,2,2
6.200,416973383809591,3.4007993,9.186345,1.174876,-0.0028252495,-0.007406735,0.0027488912,3.2508488,9.160221,1.3010448,0.1499505,0.026124,-0.1261689,6.6000004,6.15,-54.9,0.6553713,-0.07057892,0.17928992,0.7302593,-77.78914,-68.72881,-68.81772,11.05527232,76.92694008,377.35974,0.0,,3.7900925,0.13,2,2
6.220,416973403809591,3.2377882,9.174082,1.4327025,6.108647E-4,0.003512472,-8.39939E-4,3.2511928,9.159997,1.3017651,-0.013404727,0.014085293,0.13093746,6.3750005,6.15,-55.050003,0.6553492,-0.07059144,0.17928469,0.7302803,-77.78006,-68.72746,-68.81008,11.05527232,76.92694008,377.35974,0.0,,3.7900925,0.15,2,2
6.240,416973423809591,3.2778678,9.153444,1.3085749,0.0022907427,0.013286307,-6.872228E-4,3.2536895,9.159397,1.2997427,0.024178386,-0.005953312,0.008832216,6.525,6.3750005,-55.65,0.6553377,-0.07059579,0.17928176,0.7302915,-77.7752,-68.72695,-68.80582,11.05527232,76.92694008,377.35974,0.0,,3.7900925,0.17,2,2
6.260,416973443809591,3.3260236,9.145817,1.2456138,-0.0018325942,-0.0077885254,-7.635809E-4,3.2553978,9.158568,1.3013072,0.07062566,-0.012751579,-0.055693448,6.9,6.2250004,-55.2,0.6553376,-0.070595846,0.1792817,0.73029155,-77.77514,-68.72694,-68.80576,11.05527232,76.92694008,377.35974,0.0,,3.7900925,0.19,2,2
6.280,416973463809591,3.3157043,9.132357,1.3443177,-3.0543236E-4,0.0012217294,-0.0017562361,3.2555494,9.158178,1.3036782,0.060155034,-0.025821209,0.04063946,7.1250005,6.0750003,-55.050003,0.6553374,-0.07059596,0.17928165,0.73029166,-77.77507,-68.72691,-68.80571,11.05527232,76.92694008,377.35974,0.0,,3.7900925,0.21,2,2
6.300,416973483809591,3.262464,9.125927,1.3571792,-6.108647E-4,0.005039634,-9.926552E-4,3.255466,9.158534,1.3013781,0.0069981813,-0.032607555,0.055800974,7.1250005,6.0750003,-55.050003,0.6553374,-0.07059596,0.17928165,0.73029166,-77.77507,-68.72691,-68.80571,11.05527232,76.92694008,377.35974,0.0,,3.7900925,0.23,2,2
6.320,416973503809591,3.2479577,9.172736,1.2357433,-0.0016035199,-0.0056504984,1.5271618E-4,3.2556608,9.158429,1.3016292,-0.007703185,0.014307022,-0.06588584,6.4500003,6.3750005,-54.825,0.6553373,-0.070595965,0.17928159,0.7302917,-77.77501,-68.72689,-68.80565,11.05527232,76.92694008,377.35974,0.0,,3.7900925,0.25,2,2
6.340,416973523809591,3.2502007,9.157782,1.3073785,-6.108647E-4,-5.3450675E-4,0.0017562361,3.257272,9.15744,1.3045505,-0.0070711374,3.4093857E-4,0.0028279424,6.525,6.0750003,-54.9,0.6553373,-0.070595965,0.17928159,0.7302917,-77.77501,-68.72689,-68.80565,11.05527232,76.92694008,377.35974,0.0,,3.7900925,0.27,2,2
6.360,416973543809591,3.2932715,9.140134,1.3832011,4.5814854E-4,0.005268708,0.0030543236,3.260891,9.156327,1.3033146,0.0323807,-0.01619339,0.079886496,6.525,6.15,-53.550003,0.6553372,-0.07059595,0.1792815,0.73029184,-77.77497,-68.72691,-68.805626,11.05527232,76.92694008,377.35974,0.0,,3.7900925,0.29,2,2
6.380,416973563809591,3.34382,9.112019,1.2753744,0.0019089523,-4.5814877E-4,0.0032833978,3.2637227,9.155321,1.3032968,0.08009744,-0.043302536,-0.027922332,6.6000004,5.8500004,-53.4,0.655337,-0.07059599,0.17928135,0.73029196,-77.77485,-68.72688,-68.80552,11.05527232,76.92694008,377.35974,0.0,,3.7900925,0.31,2,2
6.400,416973583809591,3.3354452,9.107532,1.3060325,-7.635809E-5,-0.0029779656,3.0543236E-4,3.264844,9.154651,1.3052057,0.070601225,-0.04711914,8.2683563E-4,6.9,5.7000003,-55.425003,0.655337,-0.07059599,0.17928135,0.73029196,-77.77485,-68.72688,-68.80552,11.05527232,76.92694008,377.35974,0.0,,3.7900925,0.33,2,2
6.420,416973603809591,3.3067312,9.141929,1.3646567,-7.635809E-5,-9.92655E-4,-0.0011453714,3.2651036,9.154267,1.3072355,0.041627765,-0.012338638,0.057421207,6.3750005,6.0,-53.475002,0.655337,-0.07059601,0.17928135,0.73029196,-77.77485,-68.72688,-68.80552,11.05527232,76.92694008,377.35974,0.0,,3.7900925,0.35,2,2
6.440,416973623809591,3.2875886,9.136694,1.3652549,0.0011453714,0.0029779656,-0.0022907427,3.2663264,9.154168,1.3048853,0.021262288,-0.017473698,0.06036961,6.6000004,5.925,-53.850002,0.6553368,-0.07059601,0.17928128,0.73029214,-77.77477,-68.72688,-68.80544,11.05527232,76.92694008,377.35974,0.0,,3.7900925,0.37,2,2
6.460,416973643809591,3.2973096,9.121738,1.2436695,7.635809E-5,-0.0055741407,-0.001679878,3.2663221,9.154277,1.3041207,0.030987501,-0.032537937,-0.06045115,6.3,5.925,-53.250004,0.65533674,-0.070595995,0.17928119,0.73029226,-77.77474,-68.72689,-68.80541,11.05527232,76.92694008,377.35974,0.0,,3.7900925,0.39,2,2
6.480,416973663809591,3.2721848,9.152996,1.294218,0.001679878,-0.0012980876,-0.0012980875,3.2666364,9.154068,1.304808,0.0055485964,-0.0010724068,-0.010590076,6.0750003,5.7000003,-53.175003,0.65533674,-0.070595995,0.17928119,0.73029226,-77.77474,-68.72689,-68.80541,11.05527232,76.92694008,377.35974,0.0,,3.7900925,0.41,2,2
6.500,416973683809591,3.2790644,9.15464,1.3301103,0.0012217294,0.0010690133,7.635809E-5,3.2667675,9.154168,1.3037698,0.012296915,4.720688E-4,0.026340425,6.675,6.0750003,-54.375004,0.65533674,-0.070595995,0.17928119,0.73029226,-77.77474,-68.72689,-68.80541,11.05527232,76.92694008,377.35974,0.0,,3.7900925,0.43,2,2
6.520,416973703809591,3.258875,9.147163,1.2834502,0.0017562361,-9.162971E-4,0.0013744456,3.268387,9.153659,1.3032832,-0.009512186,-0.0064959526,-0.019832969,6.525,6.2250004,-55.350002,0.65533674,-0.070595995,0.17928119,0.73029226,-77.77474,-68.72689,-68.80541,11.05527232,76.92694008,377.35974,0.0,,3.7900925,0.45,2,2
6.540,416973723809591,3.3056846,9.142975,1.2964612,0.0011453714,-1.5271618E-4,0.0019089523,3.2716281,9.152096,1.3061299,0.034056306,-0.009120464,-0.009668708,6.3,6.3,-54.375004,0.65533674,-0.070595995,0.17928119,0.73029226,-77.77474,-68.72689,-68.80541,11.05527232,76.92694008,377.35974,0.0,,3.7900925,0.47,2,2
6.560,416973743809591,3.3650565,9.145069,1.3936696,6.872228E-4,0.0018325943,0.0027488912,3.273309,9.151709,1.3046339,0.0917474,-0.0066394806,0.08903575,6.2250004,5.8500004,-53.550003,0.65533674,-0.070595995,0.17928119,0.73029226,-77.77474,-68.72689,-68.80541,11.05527232,76.92694008,377.35974,0.0,,3.7900925,0.49,2,2
6.580,416973763809591,3.312564,9.105886,1.2640085,0.0019853103,9.926552E-4,-4.5814854E-4,3.2735517,9.151814,1.303277,0.039012194,-0.045927525,-0.039268494,5.775,5.775,-53.475002,0.65533674,-0.070595995,0.17928119,0.73029226,-77.77474,-68.72689,-68.80541,11.05527232,76.92694008,377.35974,0.0,,3.7900925,0.51,2,2
6.600,416973783809591,3.2723346,9.112915,1.272234,0.0017562361,-0.0021380265,-0.0013744456,3.2725472,9.152495,1.3010193,-2.1278858E-4,-0.03957987,-0.028785408,6.2250004,6.15,-54.825,0.65533674,-0.070595995,0.17928119,0.73029226,-77.77474,-68.72689,-68.80541,11.05527232,76.92694008,377.35974,0.0,,3.7900925,0.53,2,2
6.620,416973803809591,3.2645578,9.173634,1.2309577,-0.0018325942,-0.0022143847,-0.0038179043,3.2721179,9.152236,1.3039237,-0.0075600147,0.021397114,-0.07296604,6.6000004,5.7000003,-53.775,0.6553367,-0.07059594,0.17928103,0.73029226,-77.77468,-68.72688,-68.805374,11.05527232,76.92694008,377.35974,0.0,,3.7900925,0.55,2,2
6.640,416973823809591,3.2762227,9.161221,1.3870894,-0.0038942625,-0.008170316,-0.0029779654,3.2704587,9.15311,1.3019584,0.005764127,0.008111477,0.08513093,6.525,6.0750003,-54.825,0.6553299,-0.07058917,0.17926526,0.7303034,-77.76922,-68.72836,-68.80067,11.05527232,76.92694008,377.35974,0.0,,3.7900925,0.57,2,2
6.660,416973843809591,3.2189445,9.131609,1.2168999,-9.926552E-4,0.007941241,-0.0013744456,3.2709599,9.152558,1.3045658,-0.052015185,-0.020948887,-0.087665915,6.2250004,6.15,-54.000004,0.6553298,-0.07058908,0.17926508,0.7303035,-77.76917,-68.728386,-68.80063,11.05527232,76.92694008,377.35974,0.0,,3.7900925,0.59,2,2
6.680,416973863809591,3.300151,9.15135,1.3507484,-0.004276053,0.0044287695,-9.926552E-4,3.2749846,9.151264,1.3035446,0.025166512,8.6307526E-5,0.04720378,6.0,6.15,-54.075,0.6553218,-0.0705797,0.17924884,0.73031616,-77.76302,-68.73004,-68.79506,11.05527232,76.92694008,377.35974,0.0,,3.7900925,0.61,2,2
6.700,416973883809591,3.3683465,9.121888,1.2717853,-9.926552E-4,-0.0025961753,0.0037415465,3.2743335,9.151195,1.3056701,0.094012976,-0.029306412,-0.033884883,6.525,6.3750005,-54.15,0.6553216,-0.07057951,0.17924848,0.73031634,-77.76288,-68.73005,-68.79494,11.05527232,76.92694008,377.35974,0.0,,3.7900925,0.63,2,2
6.720,416973903809591,3.2388349,9.105139,1.354188,-8.39939E-4,0.0022143843,7.635809E-5,3.2759812,9.150247,1.3081772,-0.03714621,-0.04510784,0.046010792,6.8250003,5.925,-55.275,0.6553215,-0.07057933,0.17924814,0.7303166,-77.76278,-68.73008,-68.794846,11.05527232,76.92694008,377.35974,0.0,,3.7900925,0.65,2,2
6.740,416973923809591,3.3346975,9.140583,1.377518,3.8179045E-4,0.0041233366,-7.635809E-5,3.2776284,9.149595,1.3085966,0.057069063,-0.009012699,0.06892145,6.4500003,6.15,-54.375004,0.6553215,-0.07057933,0.17924814,0.7303166,-77.76278,-68.73008,-68.794846,11.05527232,76.92694008,377.35974,0.0,,3.7900925,0.67,2,2
6.760,416973943809591,3.3269207,9.120094,1.3223336,-7.635809E-5,-0.0014508037,-9.926552E-4,3.2780645,9.149391,1.3089356,0.04885626,-0.029297352,0.013397992,6.0,6.0,-53.475002,0.6553215,-0.07057933,0.17924814,0.7303166,-77.76278,-68.73008,-68.794846,11.05527232,76.92694008,377.35974,0.0,,3.7900925,0.69,2,2
6.780,416973963809591,3.3005996,9.131012,1.326222,0.0013744456,-3.8179057E-4,-0.0023671007,3.2773051,9.149612,1.3092936,0.023294568,-0.01860094,0.016928315,6.2250004,5.925,-54.000004,0.6553214,-0.07057934,0.17924814,0.7303166,-77.76275,-68.73008,-68.79482,11.05527232,76.92694008,377.35974,0.0,,3.7900925,0.71,2,2
6.800,416973983809591,3.2688947,9.156435,1.3239787,9.162971E-4,6.872228E-4,-0.0021380265,3.2763197,9.149869,1.3099606,-0.0074249506,0.0065660477,0.014018059,6.0,5.625,-53.250004,0.6553214,-0.07057934,0.17924814,0.7303166,-77.76275,-68.73008,-68.79482,11.05527232,76.92694008,377.35974,0.0,,3.7900925,0.73,2,2
6.820,416974003809591,3.251846,9.149256,1.3380365,0.0013744456,-9.162971E-4,-0.0012217294,3.2751532,9.150389,1.3092583,-0.023307085,-0.0011324883,0.028778195,6.525,5.8500004,-54.525,0.6553214,-0.07057934,0.17924814,0.7303166,-77.76275,-68.73008,-68.79482,11.05527232,76.92694008,377.35974,0.0,,3.7900925,0.75,2,2
6.840,416974023809591,3.2352457,9.173185,1.3064811,0.002519817,-0.001679878,0.0012980875,3.2750745,9.150538,1.308403,-0.039828777,0.022646427,-0.0019218922,5.925,5.7000003,-53.7,0.6553214,-0.07057934,0.17924808,0.73031664,-77.76273,-68.73008,-68.794815,11.05527232,76.92694008,377.35974,0.0,,3.7900925,0.77,2,2
6.860,416974043809591,3.2536407,9.166754,1.2946665,6.872228E-4,-0.0035888301,0.0034361142,3.2757354,9.15032,1.3082772,-0.022094846,0.016433716,-0.013610661,5.8500004,5.4750004,-53.925003,0.6553214,-0.07057934,0.17924805,0.7303167,-77.76273,-68.7301,-68.794815,11.05527232,76.92694008,377.35974,0.0,,3.7900925,0.79,2,2
6.880,416974063809591,3.2644083,9.165407,1.313211,-2.2907427E-4,-0.004276053,0.005726857,3.2766745,9.150064,1.3077114,-0.012266159,0.015343189,0.005499661,6.4500003,5.55,-54.075,0.6553213,-0.070579186,0.17924784,0.7303168,-77.76265,-68.7301,-68.79474,11.05527232,76.92694008,377.35974,0.0,,3.7900925,0.81,2,2
6.900,416974083809591,3.2590244,9.15479,1.2939188,-0.0010690133,-0.004657843,0.007483093,3.2787175,9.149416,1.3071277,-0.019693136,0.005373955,-0.013208866,6.2250004,6.15,-53.850002,0.6553212,-0.07057888,0.1792474,0.73031706,-77.76252,-68.73016,-68.79462,11.05527232,76.92694008,377.35974,0.0,,3.7900925,0.83,2,2
6.920,416974103809591,3.2872896,9.137143,1.2850952,-0.0022907427,-0.004734202,0.008093958,3.2813046,9.1486435,1.3060488,0.0059850216,-0.011500359,-0.020953476,6.3750005,6.0,-53.100002,0.655321,-0.07057868,0.179247,0.7303173,-77.76238,-68.73018,-68.794495,11.05527232,76.92694008,377.35974,0.0,,3.7900925,0.85,2,2
6.940,416974123809591,3.303441,9.125328,1.2702897,-0.0019853103,-0.0045814854,0.008093958,3.2840033,9.147926,1.3042831,0.01943791,-0.022598267,-0.033993423,6.3,6.15,-54.825,0.65532094,-0.07057859,0.17924672,0.7303174,-77.76231,-68.73022,-68.79443,11.05527232,76.92694008,377.35974,0.0,,3.7900925,0.87,2,2
6.960,416974143809591,3.3179479,9.128918,1.2450156,-0.0021380265,-0.0028252492,0.0070249443,3.2856224,9.147394,1.3039384,0.032325387,-0.018476486,-0.058922827,6.0,5.925,-53.775,0.65532094,-0.07057861,0.17924659,0.7303175,-77.76228,-68.730225,-68.794426,11.05527232,76.92694008,377.35974,0.0,,3.7900925,0.89,2,2
6.980,416974163809591,3.3052359,9.150602,1.2731311,-0.0035888301,9.926552E-4,0.005650499,3.285919,9.147173,1.3047386,0.019316912,0.0034298897,-0.03160745,6.3,6.2250004,-53.550003,0.65532094,-0.07057861,0.17924646,0.73031753,-77.76226,-68.73024,-68.79442,11.05527232,76.92694008,377.35974,0.0,,3.7900925,0.91,2,2
7.000,416974183809591,3.2629128,9.142675,1.3021442,-0.004428769,0.0,0.0051159924,3.286511,9.146666,1.3068063,-0.023598075,-0.0039896965,-0.004662156,6.15,6.0750003,-55.125004,0.6553209,-0.07057858,0.17924614,0.7303176,-77.762184,-68.73025,-68.794365,11.05527232,76.92694008,377.35974,0.0,,3.7900925,0.93,2,2
7.020,416974203809591,3.2632117,9.141031,1.3431213,-0.004046979,6.872228E-4,0.007101302,3.2890675,9.145485,1.3086317,-0.02585566,-0.004454136,0.034489572,6.15,5.775,-53.250004,0.65532076,-0.07057849,0.17924583,0.7303177,-77.762085,-68.730255,-68.79428,11.05527232,76.92694008,377.35974,0.0,,3.7900925,0.95,2,2
7.040,416974223809591,3.3176484,9.142826,1.3456635,-0.0035124721,-3.8179045E-4,0.009162971,3.2923396,9.143947,1.3111544,0.025308967,-0.0011210442,0.03450924,6.8250003,5.8500004,-54.9,0.6553206,-0.07057847,0.17924555,0.73031795,-77.76197,-68.73028,-68.79418,11.05527232,76.92694008,377.35974,0.0,,3.7900925,0.97,2,2
7.060,416974243809591,3.347858,9.126675,1.3712369,-0.0027488912,7.635809E-5,0.008093958,3.295653,9.142395,1.3136488,0.052204847,-0.015720367,0.0575881,6.2250004,5.8500004,-53.475002,0.6553204,-0.07057853,0.17924538,0.7303182,-77.76187,-68.73028,-68.794106,11.05527232,76.92694008,377.35974,0.0,,3.7900925,0.99,2,2
7.080,416974263809591,3.3518958,9.111271,1.3809577,-0.0019089523,-0.002443459,0.0071776607,3.298321,9.141277,1.3147292,0.05357492,-0.030006886,0.06622851,6.2250004,6.0,-53.475002,0.6553201,-0.07057867,0.17924528,0.7303184,-77.76174,-68.73025,-68.794,11.05527225,76.92694014,377.37915,0.0,,3.7900925,0.01,2,2
7.100,416974283809591,3.336492,9.1256275,1.351197,-0.0010690133,-0.00519235,0.0068722283,3.3001945,9.140531,1.315214,0.03629756,-0.014903069,0.035983026,6.3,6.3750005,-54.15,0.6553197,-0.07057885,0.17924531,0.7303188,-77.7616,-68.73022,-68.79386,11.05527225,76.92694014,377.37915,0.0,,3.7900925,0.03,2,2
7.120,416974303809591,3.3194432,9.137142,1.3398311,-3.8179045E-4,-0.005879573,0.0061850054,3.3018234,9.139997,1.3148446,0.017619848,-0.0028538704,0.024986506,6.525,6.0750003,-54.15,0.6553192,-0.07057902,0.1792453,0.7303191,-77.761406,-68.73016,-68.79369,11.05527225,76.92694014,377.37915,0.0,,3.7900925,0.05,2,2
7.140,416974323809591,3.3118162,9.125328,1.3150055,5.3450663E-4,-0.004886918,0.005650499,3.3035064,9.139592,1.3134304,0.008309722,-0.014264107,0.001575172,6.2250004,5.8500004,-54.075,0.65531886,-0.070579186,0.1792452,0.7303193,-77.76125,-68.730125,-68.79356,11.05527225,76.92694014,377.37915,0.0,,3.7900925,0.07,2,2
7.160,416974343809591,3.3179479,9.126524,1.2833006,8.39939E-4,-0.004276053,0.005115992,3.3058512,9.138901,1.3123318,0.012096524,-0.012376308,-0.029031157,6.6000004,5.8500004,-53.4,0.65531874,-0.07057928,0.17924519,0.7303195,-77.761215,-68.730125,-68.793526,11.05527225,76.92694014,377.37915,0.0,,3.7900925,0.09,2,2
7.180,416974363809591,3.3393335,9.112915,1.2859926,3.0543236E-4,-0.003359756,0.005039634,3.3079293,9.138165,1.3122214,0.031404257,-0.025249958,-0.026228786,5.925,5.775,-53.175003,0.6553187,-0.07057932,0.17924519,0.7303195,-77.761185,-68.73012,-68.7935,11.05527225,76.92694014,377.37915,0.0,,3.7900925,0.11,2,2
7.200,416974383809591,3.3423247,9.110074,1.3156039,5.3450663E-4,-0.0028252495,0.0035888301,3.309988,9.137474,1.3118442,0.032336593,-0.027400017,0.0037596226,6.7500005,6.2250004,-54.9,0.6553186,-0.070579365,0.17924519,0.7303195,-77.76116,-68.730095,-68.79349,11.05527225,76.92694014,377.37915,0.0,,3.7900925,0.13,2,2
7.220,416974403809591,3.35055,9.105886,1.3112669,0.0011453714,-0.0031306818,0.0022143847,3.3113055,9.137079,1.3112663,0.039244413,-0.03119278,5.364418E-7,6.3750005,5.625,-54.375004,0.6553186,-0.07057941,0.17924519,0.7303195,-77.76117,-68.730095,-68.793495,11.05527225,76.92694014,377.37915,0.0,,3.7900925,0.15,2,2
7.240,416974423809591,3.337539,9.119495,1.3063316,0.0013744456,-0.0028252495,0.0013744456,3.3112338,9.137095,1.3113323,0.026305199,-0.017599583,-0.00500077,6.3,5.925,-54.15,0.65531856,-0.07057945,0.17924519,0.7303195,-77.76115,-68.73008,-68.79347,11.05527225,76.92694014,377.37915,0.0,,3.7900925,0.17,2,2
7.260,416974443809591,3.3062828,9.133404,1.325175,0.0013744456,-0.002443459,0.0,3.3107736,9.137272,1.3112762,-0.0044908524,-0.003868103,0.013898909,6.0750003,6.0,-53.250004,0.6553185,-0.07057949,0.17924519,0.7303195,-77.76112,-68.73007,-68.79346,11.05527225,76.92694014,377.37915,0.0,,3.7900925,0.19,2,2
7.280,416974463809591,3.2887852,9.139685,1.3223336,0.0013744456,-0.0029016074,9.162971E-4,3.3105688,9.13736,1.3111824,-0.02178359,0.0023255348,0.011151254,5.925,5.925,-54.000004,0.6553185,-0.070579536,0.17924519,0.7303195,-77.76113,-68.73006,-68.793465,11.05527225,76.92694014,377.37915,0.0,,3.7900925,0.21,2,2
7.300,416974483809591,3.295515,9.153145,1.3230814,0.0013744456,-0.0029016074,0.0019853103,3.3111007,9.137261,1.3105171,-0.015585661,0.015883446,0.0125643015,6.3750005,5.8500004,-54.300003,0.65531844,-0.07057957,0.17924519,0.7303195,-77.7611,-68.73004,-68.79344,11.05527225,76.92694014,377.37915,0.0,,3.7900925,0.23,2,2
7.320,416974503809591,3.3080773,9.13475,1.3046865,0.0013744456,-0.0034361142,0.002672533,3.3120513,9.137118,1.3091085,-0.003973961,-0.0023684502,-0.0044219494,7.05,5.775,-54.675003,0.6553184,-0.07057962,0.17924519,0.7303195,-77.76108,-68.73003,-68.79342,11.05527225,76.92694014,377.37915,0.0,,3.7900925,0.25,2,2
7.340,416974523809591,3.3179476,9.127123,1.2813566,0.0013744456,-0.0038179043,0.0028252495,3.312574,9.137276,1.3066843,0.0053737164,-0.010152817,-0.025327682,6.15,5.8500004,-54.525,0.6553183,-0.07057966,0.17924519,0.7303195,-77.76106,-68.73001,-68.7934,11.05527225,76.92694014,377.37915,0.0,,3.7900925,0.27,2,2
7.360,416974543809591,3.31047,9.135347,1.2468102,8.39939E-4,-0.0041233366,0.0019853103,3.3117633,9.137942,1.3040798,-0.0012931824,-0.002594471,-0.057269633,6.2250004,6.0750003,-54.000004,0.6553183,-0.07057966,0.17924519,0.7303195,-77.76106,-68.73001,-68.7934,11.05527225,76.92694014,377.37915,0.0,,3.7900925,0.29,2,2
7.380,416974563809591,3.2630625,9.150602,1.2276676,-6.872228E-4,-0.002672533,0.003359756,3.310897,9.13834,1.3034862,-0.047834754,0.012262344,-0.07581866,5.8500004,6.0750003,-53.4,0.6553183,-0.07057966,0.17924519,0.7303195,-77.76106,-68.73001,-68.7934,11.05527225,76.92694014,377.37915,0.0,,3.7900925,0.31,2,2
7.400,416974583809591,3.2537901,9.153444,1.2726825,-0.0022907427,-1.5271618E-4,0.0052687083,3.3121016,9.137804,1.3041896,-0.058311462,0.015640259,-0.031507015,6.4500003,6.0,-54.675003,0.6553183,-0.07057966,0.17924519,0.7303195,-77.76106,-68.73001,-68.7934,11.05527225,76.92694014,377.37915,0.0,,3.7900925,0.33,2,2
7.420,416974603809591,3.3146577,9.133404,1.3142579,-0.0012980875,0.0017562361,0.006108647,3.315672,9.1363735,1.3051382,-0.0010143518,-0.0029697418,0.00911957,6.15,6.15,-54.375004,0.6553183,-0.07057966,0.17924519,0.7303195,-77.76106,-68.73001,-68.7934,11.05527225,76.92694014,377.37915,0.0,,3.7900925,0.35,2,2
7.440,416974623809591,3.3883862,9.085098,1.3259228,1.5271618E-4,0.002596175,0.004963276,3.3199165,9.134662,1.306328,0.06846988,-0.04956293,0.019594789,6.2250004,6.3750005,-53.775,0.6553183,-0.07057966,0.17924519,0.7303195,-77.76106,-68.73001,-68.7934,11.05527225,76.92694014,377.37915,0.0,,3.7900925,0.37,2,2
7.460,416974643809591,3.42727,9.070593,1.3360924,1.5271618E-4,0.001679878,0.0021380265,3.3222373,9.133714,1.307057,0.10503256,-0.06312132,0.02903533,6.15,5.7000003,-53.475002,0.6553183,-0.0705797,0.17924519,0.7303195,-77.76106,-68.73,-68.79341,11.05527225,76.92694014,377.37915,0.0,,3.7900925,0.39,2,2
7.480,416974663809591,3.3982568,9.098259,1.3299608,6.872228E-4,7.635809E-4,-0.001679878,3.321827,9.133802,1.3074827,0.076429844,-0.035542965,0.022478044,6.0750003,5.925,-53.775,0.65531826,-0.070579745,0.17924519,0.7303195,-77.76103,-68.729996,-68.79339,11.05527225,76.92694014,377.37915,0.0,,3.7900925,0.41,2,2
7.500,416974683809591,3.3317065,9.129217,1.3263714,7.635809E-4,-0.0010690133,-0.0040469784,3.3191183,9.134865,1.3069339,0.012588143,-0.005648136,0.019437611,5.775,5.8500004,-52.65,0.6553182,-0.07057979,0.17924519,0.7303195,-77.761024,-68.72997,-68.79337,11.05527225,76.92694014,377.37915,0.0,,3.7900925,0.43,2,2
7.520,416974703809591,3.2581272,9.151051,1.298854,0.0013744456,-6.872228E-4,-0.0038942625,3.31628,9.136194,1.3048507,-0.058152676,0.014856815,-0.005996704,6.7500005,6.0,-54.975002,0.6553182,-0.07057983,0.17924519,0.7303195,-77.761024,-68.72997,-68.79338,11.05527225,76.92694014,377.37915,0.0,,3.7900925,0.45,2,2
7.540,416974723809591,3.2370405,9.167801,1.2483057,4.5814854E-4,-0.0012980875,-0.0011453714,3.314061,9.137236,1.3031871,-0.077020526,0.030564785,-0.054881454,6.2250004,6.2250004,-55.800003,0.65531814,-0.07057987,0.17924519,0.7303195,-77.760994,-68.72995,-68.79336,11.05527225,76.92694014,377.37915,0.0,,3.7900925,0.47,2,2
7.560,416974743809591,3.2407792,9.185747,1.2468102,-0.0015271618,6.108647E-4,0.002443459,3.3138232,9.137389,1.3027148,-0.07304406,0.048357964,-0.055904686,6.6000004,5.625,-54.075,0.65531814,-0.07057987,0.17924519,0.7303195,-77.760994,-68.72995,-68.79336,11.05527225,76.92694014,377.37915,0.0,,3.7900925,0.49,2,2
7.580,416974763809591,3.2787652,9.13789,1.2716358,-0.0022907427,0.0014508037,0.0044287695,3.315696,9.136581,1.3036189,-0.0369308,0.001308918,-0.031983197,6.4500003,6.2250004,-53.550003,0.65531814,-0.07057987,0.17924519,0.7303195,-77.760994,-68.72995,-68.79336,11.05527225,76.92694014,377.37915,0.0,,3.7900925,0.51,2,2
7.600,416974783809591,3.339184,9.112616,1.3112669,-0.0022907427,0.0022907427,0.0052687083,3.3191338,9.135106,1.3052081,0.020050287,-0.022490025,0.0060587525,5.7000003,6.0,-54.300003,0.6553181,-0.07057995,0.1792451,0.73031956,-77.760956,-68.72995,-68.793335,11.05527225,76.92694014,377.37915,0.0,,3.7900925,0.53,2,2
7.620,416974803809591,3.3972101,9.095717,1.3372887,-0.0017562361,0.0021380265,0.0040469784,3.3218393,9.133896,1.306799,0.07537067,-0.038178444,0.030489683,6.15,5.8500004,-55.050003,0.655318,-0.07058,0.1792451,0.73031956,-77.76094,-68.729935,-68.79332,11.05527225,76.92694014,377.37915,0.0,,3.7900925,0.55,2,2
7.640,416974823809591,3.4006495,9.093025,1.3453646,-4.5814854E-4,0.0023671007,7.635809E-5,3.3229046,9.133344,1.3079523,0.07774496,-0.04031849,0.037412226,6.3,5.625,-54.825,0.65531796,-0.07058004,0.1792451,0.73031956,-77.76091,-68.72993,-68.7933,11.05527225,76.92694014,377.37915,0.0,,3.7900925,0.57,2,2
7.660,416974843809591,3.3671503,9.109924,1.3413267,1.5271618E-4,4.5814854E-4,-0.002519817,3.322285,9.133499,1.3084368,0.04486525,-0.02357483,0.032889903,6.525,6.15,-53.775,0.6553179,-0.07058008,0.1792451,0.73031956,-77.76089,-68.7299,-68.793274,11.05527225,76.92694014,377.37915,0.0,,3.7900925,0.59,2,2
7.680,416974863809591,3.3200414,9.130861,1.3277174,0.0011453714,5.3450663E-4,-0.0029016074,3.3205657,9.134103,1.3085858,-5.2428246E-4,-0.003241539,0.01913166,6.525,6.4500003,-54.45,0.6553179,-0.070580125,0.1792451,0.73031956,-77.76089,-68.7299,-68.79328,11.05527225,76.92694014,377.37915,0.0,,3.7900925,0.61,2,2
7.700,416974883809591,3.2835507,9.140882,1.3139586,2.2907427E-4,-4.5814854E-4,-0.0028252495,3.3189344,9.134665,1.3088015,-0.035383582,0.006217003,0.0051571727,6.2250004,6.0,-53.550003,0.65531784,-0.07058017,0.1792451,0.73031956,-77.76087,-68.72989,-68.79327,11.05527225,76.92694014,377.37915,0.0,,3.7900925,0.63,2,2
7.720,416974903809591,3.2796626,9.149706,1.315903,1.5271618E-4,2.2907427E-4,-0.0014508037,3.318217,9.134909,1.3089207,-0.03855455,0.014796734,0.0069821477,5.3250003,6.2250004,-53.175003,0.6553178,-0.07058021,0.1792451,0.73031956,-77.76085,-68.72987,-68.79324,11.05527225,76.92694014,377.37915,0.0,,3.7900925,0.65,2,2
7.740,416974923809591,3.298506,9.14447,1.3130615,1.5271618E-4,3.0543236E-4,0.0,3.3181446,9.134966,1.3086991,-0.019638538,0.009504795,0.0043623447,6.15,6.3750005,-54.600002,0.6553178,-0.07058025,0.1792451,0.73031956,-77.76085,-68.72986,-68.79325,11.05527225,76.92694014,377.37915,0.0,,3.7900925,0.67,2,2
7.760,416974943809591,3.31047,9.136694,1.3016956,-4.5814854E-4,-0.0010690133,7.635809E-4,3.318243,9.134891,1.3089811,-0.0077729225,0.0018033981,-0.0072855353,6.3,6.0,-53.475002,0.6553177,-0.07058029,0.1792451,0.73031956,-77.760826,-68.72985,-68.793236,11.05527225,76.92694014,377.37915,0.0,,3.7900925,0.69,2,2
7.780,416974963809591,3.3083763,9.139536,1.3156037,-0.0010690133,-0.0020616683,0.0021380265,3.318112,9.13492,1.3090993,-0.009735465,0.004615307,0.006504476,5.925,5.925,-53.475002,0.65531766,-0.07058033,0.1792451,0.73031956,-77.7608,-68.72983,-68.79321,11.05527225,76.92694014,377.37915,0.0,,3.7900925,0.71,2,2
